sub,trial,gamble,choice,choice_fct,rt
1,1,70,1,A,6.001
1,2,51,1,A,4.378
1,3,47,1,A,8.883
1,4,79,1,A,7.507
1,5,54,1,A,4.123
1,6,75,1,A,3.584
1,7,65,1,A,5.232
1,8,10,1,A,7.404
1,9,14,1,A,6.991
1,10,30,2,B,6.241
1,11,72,1,A,7.867
1,12,39,2,B,8.031
1,13,61,1,A,4.971
1,14,60,1,A,4.782
1,15,19,2,B,4.601
1,16,12,1,A,4.276
1,17,21,1,A,4.05
1,18,52,1,A,4.492
1,19,45,2,B,4.704
1,20,11,1,A,4.732
1,21,34,2,B,5.663
1,22,74,2,B,9.839
1,23,28,1,A,6.482
1,24,91,2,B,4.69
1,25,84,2,B,4.403
1,26,76,2,B,6.143
1,27,87,2,B,3.229
1,28,1,2,B,4.705
1,29,33,2,B,6.305
1,30,58,2,B,6.824
1,31,81,1,A,5.43
1,32,67,2,B,5.528
1,33,49,1,A,6.135
1,34,7,2,B,8.376
1,35,77,1,A,3.441
1,36,69,2,B,4.538
1,37,56,1,A,5.662
1,38,43,1,A,7.228
1,39,23,2,B,4.837
1,40,90,1,A,2.957
1,41,16,2,B,5.733
1,42,85,1,A,4.958
1,43,31,1,A,4.66
1,44,18,2,B,3.272
1,45,42,1,A,5.166
1,46,41,2,B,5.059
1,47,66,2,B,2.973
1,48,4,2,B,4.755
1,49,17,1,A,6.056
1,50,26,1,A,4.985
1,51,82,2,B,3.404
1,52,59,2,B,3.799
1,53,40,1,A,4.966
1,54,71,2,B,3.805
1,55,5,2,B,7.205
1,56,48,2,B,3.877
1,57,63,1,A,6.01
1,58,46,2,B,6.436
1,59,78,2,B,3.401
1,60,57,2,B,3.754
1,61,35,1,A,4.856
1,62,15,2,B,4.106
1,63,80,1,A,3.594
1,64,32,2,B,3.564
1,65,3,1,A,4.454
1,66,29,2,B,4.629
1,67,25,2,B,2.93
1,68,44,2,B,5.803
1,69,88,1,A,5.406
1,70,55,1,A,5.125
1,71,37,1,A,4.006
1,72,38,2,B,5.404
1,73,24,2,B,3.004
1,74,83,1,A,4.403
1,75,2,2,B,6.01
1,76,68,2,B,3.446
1,77,64,2,B,3.608
1,78,6,1,A,3.851
1,79,36,2,B,4.785
1,80,89,1,A,3.033
1,81,22,2,B,3.442
1,82,73,2,B,5.013
1,83,53,1,A,3.813
1,84,8,2,B,3.404
1,85,20,1,A,2.997
1,86,9,1,A,4.148
1,87,27,2,B,4.386
1,88,13,1,A,3.165
1,89,50,2,B,5.109
1,90,86,2,B,3.103
1,91,62,2,B,3.452
2,1,22,1,A,7.343
2,2,14,1,A,10.787
2,3,68,2,B,4.302
2,4,47,2,B,2.53
2,5,49,1,A,1.52
2,6,10,1,A,3.325
2,7,9,1,A,3.636
2,8,35,1,A,9.817
2,9,86,1,A,4.104
2,10,81,2,B,8.675
2,11,79,1,A,3.32
2,12,23,1,A,2.318
2,13,83,1,A,1.901
2,14,34,1,A,2.775
2,15,82,2,B,2.254
2,16,12,1,A,4.822
2,17,18,1,A,2.402
2,18,57,1,A,2.063
2,19,74,2,B,1.25
2,20,61,1,A,1.001
2,21,32,2,B,1.501
2,22,2,1,A,2.042
2,23,39,1,A,1.666
2,24,91,2,B,2.252
2,25,59,1,A,0.835
2,26,31,1,A,3.17
2,27,33,2,B,2.191
2,28,89,1,A,4.141
2,29,54,1,A,2.689
2,30,40,1,A,1.301
2,31,67,1,A,3.197
2,32,37,2,B,1.436
2,33,48,2,B,1.667
2,34,42,1,A,1.359
2,35,11,1,A,8.129
2,36,84,2,B,0.535
2,37,4,2,B,0.86
2,38,3,1,A,1.315
2,39,46,2,B,1.742
2,40,43,2,B,1.976
2,41,27,1,A,9.183
2,42,71,2,B,3.213
2,43,88,1,A,0.622
2,44,20,1,A,1.65
2,45,63,1,A,2.101
2,46,45,2,B,7.405
2,47,1,1,A,1.01
2,48,26,1,A,1.018
2,49,65,1,A,1.296
2,50,13,2,B,0.939
2,51,69,1,A,0.862
2,52,8,2,B,1.454
2,53,58,1,A,2.023
2,54,77,2,B,3.402
2,55,80,1,A,2.018
2,56,75,1,A,1.2
2,57,38,2,B,1.381
2,58,7,1,A,1.298
2,59,41,1,A,0.754
2,60,64,2,B,2.475
2,61,51,1,A,0.958
2,62,15,1,A,3.602
2,63,50,2,B,1.763
2,64,16,2,B,0.695
2,65,36,1,A,2.002
2,66,90,1,A,1.097
2,67,21,2,B,0.881
2,68,6,2,B,0.566
2,69,66,1,A,0.484
2,70,5,1,A,0.196
2,71,87,1,A,0.53
2,72,72,1,A,1.075
2,73,73,2,B,8.496
2,74,44,1,A,0.29
2,75,62,1,A,0.161
2,76,56,1,A,0.295
2,77,19,1,A,1.481
2,78,76,1,A,0.288
2,79,52,2,B,0.579
2,80,85,1,A,0.3
2,81,78,1,A,0.365
2,82,28,1,A,0.275
2,83,29,2,B,0.723
2,84,24,1,A,4.113
2,85,17,1,A,0.218
2,86,30,2,B,1.889
2,87,53,1,A,0.601
2,88,25,1,A,1.223
2,89,55,2,B,1.154
2,90,60,1,A,0.89
2,91,70,1,A,0.725
3,1,7,2,B,4.073
3,2,67,2,B,2.465
3,3,66,2,B,6.037
3,4,45,1,A,5.264
3,5,69,1,A,2.97
3,6,16,2,B,2.643
3,7,26,1,A,3.01
3,8,6,1,A,2.379
3,9,90,1,A,1.682
3,10,84,1,A,2.001
3,11,31,1,A,2.899
3,12,28,1,A,1.801
3,13,75,1,A,1.789
3,14,33,1,A,5.002
3,15,1,2,B,2.201
3,16,22,2,B,1.587
3,17,2,2,B,4.035
3,18,68,2,B,3.488
3,19,61,1,A,2.053
3,20,80,2,B,7.759
3,21,25,2,B,2.275
3,22,29,1,A,2.354
3,23,54,1,A,2.788
3,24,88,2,B,5.88
3,25,3,1,A,3.085
3,26,47,2,B,2.401
3,27,85,2,B,1.433
3,28,24,1,A,1.59
3,29,59,1,A,2.628
3,30,70,1,A,2.164
3,31,42,2,B,7.032
3,32,60,1,A,3.098
3,33,34,1,A,3.79
3,34,83,2,B,5.035
3,35,82,1,A,1.253
3,36,36,2,B,1.817
3,37,77,1,A,3.857
3,38,48,1,A,2.4
3,39,41,2,B,3.12
3,40,15,2,B,2.101
3,41,64,2,B,1.446
3,42,38,2,B,3.266
3,43,18,2,B,2.366
3,44,37,1,A,4.37
3,45,74,1,A,2.983
3,46,53,1,A,4.223
3,47,63,1,A,1.648
3,48,44,2,B,1.992
3,49,43,1,A,1.93
3,50,91,2,B,1.841
3,51,32,1,A,1.519
3,52,27,1,A,1.702
3,53,52,1,A,1.699
3,54,72,2,B,2.201
3,55,19,1,A,2.092
3,56,78,2,B,2.198
3,57,40,2,B,2.437
3,58,11,1,A,4.219
3,59,49,2,B,2.683
3,60,65,2,B,1.386
3,61,12,1,A,1.548
3,62,71,2,B,2.456
3,63,5,2,B,2.135
3,64,58,1,A,3.13
3,65,46,2,B,2.568
3,66,21,1,A,1.982
3,67,57,1,A,2.049
3,68,17,2,B,1.992
3,69,4,2,B,1.914
3,70,76,2,B,2.781
3,71,50,1,A,3.701
3,72,30,1,A,2.194
3,73,87,2,B,1.558
3,74,39,2,B,2.01
3,75,51,1,A,2.207
3,76,56,1,A,2.157
3,77,79,1,A,2.124
3,78,62,1,A,1.77
3,79,86,1,A,2.055
3,80,23,2,B,1.873
3,81,10,1,A,2.744
3,82,14,1,A,2
3,83,20,1,A,1.5
3,84,9,1,A,1.482
3,85,35,1,A,2.379
3,86,13,1,A,1.413
3,87,89,1,A,1.866
3,88,8,2,B,1.628
3,89,55,1,A,1.213
3,90,73,1,A,1.86
3,91,81,1,A,1.983
4,1,77,1,A,4.035
4,2,34,2,B,14.255
4,3,41,2,B,10.869
4,4,44,2,B,10.781
4,5,67,1,A,5.579
4,6,68,1,A,7.069
4,7,32,2,B,6.188
4,8,10,1,A,9.841
4,9,82,2,B,5.959
4,10,66,2,B,5.88
4,11,79,1,A,4.081
4,12,64,2,B,6.299
4,13,56,1,A,4.535
4,14,38,2,B,5.517
4,15,7,2,B,8.689
4,16,74,2,B,10.619
4,17,21,1,A,5.932
4,18,39,2,B,4.926
4,19,29,2,B,3.871
4,20,53,1,A,7.072
4,21,81,2,B,6.419
4,22,46,2,B,3.15
4,23,25,2,B,7.067
4,24,4,2,B,5.472
4,25,18,2,B,3.956
4,26,35,1,A,3.127
4,27,60,1,A,8.484
4,28,55,1,A,6.083
4,29,63,2,B,9.056
4,30,72,2,B,5.146
4,31,50,1,A,14.114
4,32,28,1,A,6.965
4,33,3,1,A,5.443
4,34,69,1,A,5.636
4,35,62,1,A,6.789
4,36,26,1,A,2.75
4,37,22,2,B,3.117
4,38,90,1,A,7.413
4,39,88,1,A,5.216
4,40,78,2,B,4.84
4,41,33,2,B,3.994
4,42,9,1,A,8.419
4,43,47,1,A,9.092
4,44,52,1,A,6.568
4,45,76,2,B,3.475
4,46,43,1,A,18.793
4,47,30,2,B,8.698
4,48,31,1,A,9.001
4,49,91,2,B,4.114
4,50,13,1,A,2.924
4,51,65,1,A,5.136
4,52,83,1,A,3.456
4,53,19,2,B,4
4,54,27,2,B,4.745
4,55,17,1,A,6.393
4,56,89,1,A,3.5
4,57,14,1,A,10.801
4,58,23,2,B,3.998
4,59,6,2,B,5.42
4,60,57,1,A,7.066
4,61,59,1,A,15.854
4,62,73,1,A,6.3
4,63,51,2,B,6.02
4,64,11,1,A,10.691
4,65,37,1,A,6.262
4,66,16,1,A,6.061
4,67,70,1,A,8.165
4,68,15,2,B,3.615
4,69,12,1,A,5.343
4,70,2,2,B,6.54
4,71,36,2,B,9
4,72,84,2,B,3.8
4,73,24,2,B,4.851
4,74,71,1,A,21.537
4,75,86,2,B,11.875
4,76,75,1,A,4.64
4,77,40,1,A,4.556
4,78,87,1,A,4.853
4,79,5,1,A,2.224
4,80,80,1,A,2.128
4,81,58,2,B,5.396
4,82,42,1,A,6.22
4,83,1,1,A,3.822
4,84,61,2,B,7.113
4,85,45,1,A,33.956
4,86,8,1,A,5.501
4,87,49,2,B,2.74
4,88,20,2,B,3.218
4,89,54,1,A,4.301
4,90,85,1,A,4.075
4,91,48,1,A,1.788
5,1,64,1,A,10.087
5,2,6,2,B,20.237
5,3,36,2,B,14.171
5,4,81,2,B,9.792
5,5,37,2,B,10.64
5,6,82,2,B,15.466
5,7,48,1,A,12.417
5,8,63,2,B,8.78
5,9,72,1,A,17.175
5,10,91,2,B,14.448
5,11,58,2,B,13.325
5,12,18,1,A,4.519
5,13,24,2,B,2.141
5,14,32,1,A,1.836
5,15,71,2,B,2.393
5,16,3,2,B,2.631
5,17,30,1,A,2.038
5,18,66,1,A,1.635
5,19,56,2,B,2.155
5,20,29,2,B,2.013
5,21,33,1,A,1.622
5,22,31,2,B,1.761
5,23,10,2,B,1.35
5,24,78,1,A,0.841
5,25,26,1,A,2.098
5,26,55,1,A,1.556
5,27,76,1,A,1.443
5,28,84,2,B,0.554
5,29,34,2,B,1.36
5,30,23,1,A,2.184
5,31,80,2,B,1.846
5,32,65,1,A,0.929
5,33,7,1,A,2.486
5,34,69,1,A,1.579
5,35,70,1,A,1.637
5,36,59,2,B,1.33
5,37,61,2,B,1.109
5,38,21,1,A,1.301
5,39,1,2,B,1.256
5,40,17,1,A,2.203
5,41,54,2,B,1.693
5,42,35,1,A,1.495
5,43,41,1,A,0.88
5,44,42,1,A,103.481
5,45,5,2,B,4.011
5,46,77,1,A,10.738
5,47,62,2,B,10.729
5,48,22,2,B,63.833
5,49,15,2,B,1.901
5,50,53,1,A,0.927
5,51,8,1,A,0.431
5,52,90,1,A,0.471
5,53,88,1,A,0.385
5,54,83,1,A,2.84
5,55,38,1,A,0.54
5,56,86,1,A,0.663
5,57,47,2,B,1.343
5,58,27,1,A,0.541
5,59,75,1,A,1.368
5,60,19,2,B,0.635
5,61,46,2,B,0.409
5,62,68,1,A,0.754
5,63,87,1,A,0.422
5,64,51,2,B,2.36
5,65,74,2,B,0.38
5,66,11,2,B,0.636
5,67,16,2,B,0.718
5,68,57,2,B,1.896
5,69,12,2,B,1.127
5,70,45,1,A,1.113
5,71,28,2,B,1.084
5,72,44,1,A,1.123
5,73,73,2,B,4.39
5,74,9,2,B,1.321
5,75,67,1,A,0.638
5,76,60,2,B,1.786
5,77,25,2,B,0.592
5,78,13,1,A,1.324
5,79,79,1,A,0.521
5,80,4,1,A,1.185
5,81,40,1,A,0.65
5,82,85,1,A,0.548
5,83,39,2,B,1.394
5,84,49,2,B,1.64
5,85,20,1,A,1.345
5,86,43,1,A,0.283
5,87,2,2,B,0.541
5,88,50,1,A,0.625
5,89,52,1,A,0.333
5,90,89,2,B,0.465
5,91,14,1,A,0.372
6,1,51,2,B,75.065
6,2,89,1,A,26.08
6,3,7,2,B,18.719
6,4,12,2,B,20.951
6,5,39,2,B,47.094
6,6,6,2,B,11.998
6,7,55,2,B,49.632
6,8,18,2,B,36.139
6,9,26,1,A,20.551
6,10,76,2,B,18.782
6,11,71,2,B,29.026
6,12,31,1,A,14.154
6,13,56,2,B,19.919
6,14,43,2,B,16.856
6,15,83,1,A,10.645
6,16,74,2,B,24.69
6,17,75,1,A,13.278
6,18,37,2,B,42.542
6,19,47,1,A,30.318
6,20,41,2,B,14.119
6,21,5,1,A,13.019
6,22,49,2,B,15.047
6,23,46,2,B,18.6
6,24,88,1,A,28.408
6,25,77,1,A,42.51
6,26,67,2,B,8.151
6,27,42,1,A,12.658
6,28,38,2,B,19.948
6,29,21,2,B,14.439
6,30,81,2,B,12.319
6,31,19,1,A,17.139
6,32,63,1,A,8.398
6,33,17,1,A,15.708
6,34,14,1,A,13.038
6,35,4,1,A,18.788
6,36,60,1,A,27.587
6,37,57,2,B,16.666
6,38,73,2,B,8.6
6,39,66,2,B,13.491
6,40,45,2,B,24.325
6,41,40,1,A,10.888
6,42,61,1,A,13.031
6,43,54,2,B,25.582
6,44,70,2,B,13.57
6,45,62,2,B,15.968
6,46,44,2,B,21.021
6,47,36,1,A,7.731
6,48,8,1,A,13.996
6,49,28,2,B,23.327
6,50,53,2,B,37.061
6,51,22,2,B,20.453
6,52,24,1,A,23.563
6,53,10,1,A,16.351
6,54,23,2,B,9.007
6,55,65,1,A,9.258
6,56,20,1,A,10.535
6,57,48,1,A,9.723
6,58,86,2,B,8.745
6,59,34,2,B,8.962
6,60,16,1,A,18.732
6,61,58,2,B,12.561
6,62,69,1,A,43.674
6,63,25,2,B,16.89
6,64,1,2,B,9.362
6,65,85,1,A,7.308
6,66,30,2,B,7.853
6,67,78,1,A,6.49
6,68,79,2,B,7.98
6,69,80,1,A,4.727
6,70,13,1,A,21.122
6,71,29,2,B,14.533
6,72,90,1,A,18.423
6,73,84,2,B,20.081
6,74,11,1,A,14.41
6,75,68,1,A,13.717
6,76,91,2,B,9.133
6,77,27,2,B,9.296
6,78,33,2,B,22.661
6,79,15,2,B,7.523
6,80,64,2,B,17.938
6,81,32,1,A,37.509
6,82,52,1,A,13.354
6,83,82,2,B,14.496
6,84,87,1,A,10.969
6,85,3,2,B,10.135
6,86,2,1,A,5.33
6,87,59,2,B,22.712
6,88,35,1,A,7.423
6,89,9,2,B,6.184
6,90,72,1,A,9.26
6,91,50,2,B,18.171
7,1,32,1,A,26.248
7,2,57,1,A,8.255
7,3,43,1,A,12.817
7,4,62,1,A,13.592
7,5,53,2,B,22.581
7,6,83,1,A,13.517
7,7,61,1,A,13.682
7,8,29,1,A,13.924
7,9,72,1,A,13.588
7,10,13,1,A,21.454
7,11,48,1,A,10.836
7,12,3,1,A,19.801
7,13,19,1,A,6.768
7,14,31,1,A,17.192
7,15,65,1,A,8.174
7,16,86,2,B,22.062
7,17,23,2,B,15.487
7,18,68,2,B,15.081
7,19,73,2,B,8.278
7,20,11,1,A,10.08
7,21,20,1,A,8.938
7,22,35,1,A,15.163
7,23,58,2,B,13.678
7,24,82,2,B,13.158
7,25,51,1,A,18.782
7,26,81,2,B,12.622
7,27,2,1,A,10.781
7,28,59,2,B,12.882
7,29,4,1,A,30.69
7,30,45,1,A,16.22
7,31,28,1,A,21.001
7,32,33,2,B,16.036
7,33,14,1,A,13.69
7,34,70,1,A,21.575
7,35,90,1,A,5.643
7,36,67,2,B,21.375
7,37,15,2,B,12.659
7,38,75,1,A,15.453
7,39,1,2,B,12.101
7,40,66,2,B,23.171
7,41,37,1,A,22.342
7,42,64,1,A,17.101
7,43,7,2,B,22.488
7,44,34,1,A,16.015
7,45,76,2,B,8.172
7,46,18,2,B,13.062
7,47,85,1,A,12.489
7,48,22,1,A,18.623
7,49,5,1,A,15.299
7,50,88,1,A,13.49
7,51,55,2,B,21.555
7,52,26,1,A,17.528
7,53,9,1,A,23.899
7,54,79,1,A,7.772
7,55,12,1,A,8.085
7,56,36,1,A,16.352
7,57,74,2,B,15.091
7,58,39,2,B,43.367
7,59,50,1,A,17.223
7,60,8,2,B,16.876
7,61,25,2,B,12.84
7,62,69,1,A,18.157
7,63,91,2,B,16.155
7,64,27,2,B,20.301
7,65,6,2,B,11.434
7,66,24,2,B,25.386
7,67,46,2,B,16.741
7,68,84,2,B,15.123
7,69,52,1,A,11.746
7,70,78,2,B,5.976
7,71,80,2,B,5.802
7,72,87,1,A,9.42
7,73,89,1,A,32.281
7,74,40,1,A,22.391
7,75,42,1,A,15.6
7,76,41,2,B,8.84
7,77,63,1,A,14.585
7,78,44,2,B,11.422
7,79,60,1,A,14.214
7,80,16,2,B,13.293
7,81,47,2,B,21.7
7,82,38,2,B,14.167
7,83,17,1,A,14.557
7,84,77,1,A,4.63
7,85,71,2,B,17.061
7,86,10,2,B,18.229
7,87,30,2,B,33.686
7,88,21,1,A,11.396
7,89,49,2,B,9.186
7,90,54,1,A,18.114
7,91,56,1,A,13.318
8,1,47,1,A,20.293
8,2,62,1,A,9.962
8,3,28,1,A,23.801
8,4,49,2,B,10.471
8,5,21,1,A,28.535
8,6,73,1,A,12.069
8,7,51,2,B,24.819
8,8,72,1,A,16.051
8,9,68,2,B,8.796
8,10,26,1,A,22.158
8,11,29,1,A,8.387
8,12,48,1,A,35.982
8,13,50,1,A,7.439
8,14,27,2,B,8.467
8,15,39,2,B,7.212
8,16,40,1,A,26.899
8,17,20,1,A,19.976
8,18,24,2,B,12.89
8,19,13,1,A,10.769
8,20,81,1,A,8.832
8,21,76,2,B,17.135
8,22,83,2,B,16.431
8,23,25,2,B,8.617
8,24,16,2,B,9.597
8,25,75,2,B,7.64
8,26,82,2,B,21.276
8,27,10,1,A,10.219
8,28,90,1,A,7.94
8,29,43,1,A,16.118
8,30,14,1,A,9.643
8,31,2,2,B,14.352
8,32,7,2,B,17.252
8,33,61,1,A,26.324
8,34,85,1,A,47.511
8,35,55,1,A,9.55
8,36,17,1,A,19.101
8,37,37,2,B,18.651
8,38,87,1,A,27.938
8,39,15,2,B,10.561
8,40,22,2,B,10.166
8,41,5,1,A,11.288
8,42,38,2,B,10.21
8,43,78,1,A,16.131
8,44,60,1,A,16.583
8,45,45,2,B,23.097
8,46,32,2,B,36.059
8,47,3,1,A,13.052
8,48,53,2,B,18.272
8,49,66,2,B,9.361
8,50,89,1,A,11.984
8,51,67,1,A,9.195
8,52,36,2,B,21.797
8,53,42,1,A,30.233
8,54,34,1,A,16.428
8,55,58,2,B,24.736
8,56,64,1,A,12.066
8,57,44,1,A,11.191
8,58,54,2,B,18.613
8,59,23,2,B,6.751
8,60,69,1,A,12.738
8,61,9,1,A,26.502
8,62,80,1,A,7.237
8,63,19,1,A,7.943
8,64,6,2,B,20.943
8,65,18,1,A,19.497
8,66,57,1,A,11.973
8,67,31,1,A,50.884
8,68,74,2,B,19.816
8,69,30,1,A,33.943
8,70,12,1,A,36.259
8,71,4,2,B,61.234
8,72,65,1,A,10.871
8,73,77,2,B,13.65
8,74,86,1,A,20.348
8,75,46,2,B,14.993
8,76,88,2,B,21.697
8,77,59,2,B,26.076
8,78,1,2,B,10.97
8,79,33,2,B,34.999
8,80,91,2,B,16.245
8,81,11,1,A,16.319
8,82,41,2,B,12.797
8,83,84,2,B,14.995
8,84,71,2,B,12.397
8,85,70,1,A,13.582
8,86,79,1,A,6.917
8,87,56,2,B,16.957
8,88,52,1,A,30.349
8,89,8,2,B,14.832
8,90,35,1,A,5.938
8,91,63,2,B,22.125
10,1,53,2,B,20.696
10,2,87,1,A,13.72
10,3,84,2,B,8.884
10,4,12,2,B,8.604
10,5,40,1,A,22.799
10,6,28,2,B,12.329
10,7,3,2,B,12.912
10,8,69,2,B,7.964
10,9,1,2,B,14.262
10,10,4,2,B,11.863
10,11,88,1,A,10.159
10,12,85,1,A,4.741
10,13,78,2,B,6.894
10,14,68,2,B,7.512
10,15,61,1,A,9.958
10,16,17,1,A,9.222
10,17,19,2,B,16.451
10,18,73,2,B,13.161
10,19,63,1,A,15.513
10,20,59,2,B,29.494
10,21,31,1,A,13.072
10,22,36,1,A,30.193
10,23,57,1,A,15.279
10,24,27,2,B,8.785
10,25,46,1,A,16.364
10,26,29,2,B,8.669
10,27,62,2,B,7.503
10,28,75,1,A,8.748
10,29,79,2,B,6.844
10,30,65,1,A,6.184
10,31,9,2,B,7.238
10,32,32,2,B,4.544
10,33,26,1,A,6.799
10,34,48,1,A,7.942
10,35,25,2,B,14.903
10,36,66,1,A,9.996
10,37,18,1,A,11.511
10,38,5,2,B,5.888
10,39,21,1,A,9.441
10,40,51,2,B,8.424
10,41,8,2,B,9.477
10,42,74,2,B,11.198
10,43,37,1,A,7.745
10,44,70,1,A,21.177
10,45,20,1,A,18.99
10,46,49,2,B,7.709
10,47,77,2,B,7.652
10,48,7,2,B,12.099
10,49,34,1,A,4.407
10,50,6,2,B,7.203
10,51,52,1,A,12.365
10,52,54,1,A,37.744
10,53,81,2,B,8.144
10,54,80,1,A,4.701
10,55,55,2,B,27.023
10,56,22,2,B,14.01
10,57,16,1,A,13.167
10,58,83,1,A,5.374
10,59,38,2,B,8.046
10,60,35,1,A,8.683
10,61,10,1,A,11.464
10,62,58,2,B,3.534
10,63,42,1,A,8.416
10,64,67,1,A,9.465
10,65,33,1,A,9.719
10,66,44,2,B,8.603
10,67,47,2,B,12.035
10,68,64,2,B,16.217
10,69,39,2,B,5.361
10,70,56,1,A,10.331
10,71,14,1,A,8.846
10,72,86,2,B,6.378
10,73,24,2,B,4.104
10,74,45,2,B,9.974
10,75,23,1,A,10.548
10,76,50,2,B,11.145
10,77,13,1,A,6.996
10,78,43,2,B,9.484
10,79,2,1,A,13.978
10,80,11,1,A,17.7
10,81,60,1,A,7.964
10,82,76,1,A,3.938
10,83,82,2,B,13.459
10,84,30,1,A,11.338
10,85,15,2,B,5.419
10,86,41,2,B,5.337
10,87,89,2,B,4.623
10,88,71,2,B,15.207
10,89,91,2,B,8.369
10,90,90,1,A,6.104
10,91,72,2,B,7.201
13,1,29,1,A,70.33
13,2,72,1,A,6.038
13,3,30,2,B,17.045
13,4,17,1,A,9.62
13,5,40,1,A,83.124
13,6,65,1,A,9.803
13,7,12,1,A,6.8
13,8,58,2,B,5.516
13,9,27,1,A,6.658
13,10,9,1,A,4.681
13,11,49,1,A,9.717
13,12,81,2,B,19.139
13,13,79,2,B,14.505
13,14,61,2,B,15.699
13,15,26,1,A,12.78
13,16,13,1,A,13.337
13,17,63,2,B,23.019
13,18,41,1,A,17.013
13,19,39,1,A,25.663
13,20,90,1,A,43.333
13,21,4,2,B,29.576
13,22,37,1,A,36.466
13,23,54,2,B,10.801
13,24,89,1,A,21.835
13,25,67,2,B,7.247
13,26,14,2,B,16.348
13,27,45,2,B,16.9
13,28,21,1,A,8.004
13,29,24,2,B,10.418
13,30,75,2,B,6.916
13,31,48,2,B,13.753
13,32,23,1,A,7.271
13,33,71,2,B,21.052
13,34,46,2,B,10.604
13,35,85,1,A,10.098
13,36,38,2,B,16.923
13,37,88,1,A,4.217
13,38,50,1,A,10.739
13,39,87,1,A,7.354
13,40,62,2,B,11.004
13,41,28,1,A,14.245
13,42,59,2,B,18.44
13,43,44,2,B,10.099
13,44,78,2,B,7.869
13,45,64,2,B,44.498
13,46,8,2,B,22.747
13,47,42,2,B,42.211
13,48,15,2,B,6.103
13,49,77,1,A,10.222
13,50,73,2,B,10.993
13,51,66,2,B,4.615
13,52,57,2,B,5.896
13,53,10,1,A,6.237
13,54,32,1,A,33.515
13,55,70,1,A,8.341
13,56,1,2,B,7.981
13,57,76,2,B,3.701
13,58,51,2,B,4.306
13,59,31,1,A,34.68
13,60,69,2,B,3.536
13,61,84,1,A,7.548
13,62,68,2,B,9.555
13,63,52,2,B,34.413
13,64,33,1,A,33.752
13,65,74,1,A,28.72
13,66,20,2,B,112.537
13,67,22,1,A,6.831
13,68,47,1,A,3.959
13,69,56,1,A,7.027
13,70,7,1,A,19.766
13,71,55,1,A,7.4
13,72,91,2,B,13.716
13,73,83,1,A,12.179
13,74,35,1,A,7.383
13,75,6,2,B,15.422
13,76,43,2,B,9.574
13,77,25,2,B,19.768
13,78,11,1,A,20.046
13,79,16,1,A,3.631
13,80,2,2,B,10.731
13,81,19,2,B,7.374
13,82,36,1,A,25.81
13,83,80,2,B,15.377
13,84,34,2,B,32.22
13,85,82,2,B,14.582
13,86,86,2,B,23.372
13,87,5,1,A,2.412
13,88,60,2,B,3.555
13,89,53,2,B,7.775
13,90,3,2,B,7.444
13,91,18,2,B,11.722
16,1,9,2,B,9.501
16,2,12,2,B,6.022
16,3,40,1,A,7.644
16,4,66,2,B,6.124
16,5,86,2,B,4.422
16,6,7,2,B,5.481
16,7,44,1,A,7.669
16,8,24,2,B,6.95
16,9,54,2,B,11.2
16,10,3,2,B,3.467
16,11,71,2,B,9.085
16,12,15,2,B,4.71
16,13,18,1,A,8.338
16,14,55,2,B,7.193
16,15,72,1,A,4.392
16,16,22,1,A,12.687
16,17,73,1,A,196.801
16,18,11,2,B,3.926
16,19,43,1,A,5.397
16,20,78,1,A,4.311
16,21,29,1,A,5.894
16,22,42,1,A,4.494
16,23,61,2,B,5.417
16,24,75,2,B,4.659
16,25,88,2,B,22.035
16,26,91,2,B,3.779
16,27,2,1,A,5.815
16,28,26,2,B,6.275
16,29,59,2,B,5.956
16,30,47,1,A,6.847
16,31,1,2,B,6.447
16,32,62,2,B,4.258
16,33,41,2,B,6.219
16,34,82,2,B,8.945
16,35,68,2,B,6.705
16,36,64,1,A,5.478
16,37,48,1,A,5.156
16,38,6,2,B,4.649
16,39,84,2,B,6.566
16,40,69,1,A,307.558
16,41,8,1,A,0.492
16,42,16,2,B,3.868
16,43,33,1,A,5.049
16,44,49,1,A,6.622
16,45,31,2,B,6.959
16,46,77,2,B,2.863
16,47,27,2,B,6.06
16,48,90,1,A,3.986
16,49,36,2,B,5
16,50,13,2,B,3.559
16,51,74,2,B,3.215
16,52,10,1,A,6.645
16,53,38,1,A,2.464
16,54,25,2,B,5.417
16,55,63,1,A,5.828
16,56,28,1,A,7.686
16,57,89,1,A,2.659
16,58,30,2,B,4.144
16,59,65,1,A,3.362
16,60,87,1,A,4.855
16,61,23,2,B,3.608
16,62,58,2,B,4.842
16,63,85,1,A,5.883
16,64,39,1,A,3.511
16,65,56,2,B,21.009
16,66,83,1,A,2.212
16,67,4,2,B,1.853
16,68,19,1,A,1.184
16,69,21,2,B,1.998
16,70,45,1,A,6.157
16,71,17,1,A,3.372
16,72,57,1,A,6.128
16,73,52,1,A,25.096
16,74,81,2,B,2.063
16,75,50,1,A,1.911
16,76,70,2,B,3.204
16,77,5,1,A,6.929
16,78,80,1,A,2.74
16,79,37,2,B,4.464
16,80,14,1,A,4.745
16,81,20,1,A,22.974
16,82,51,2,B,2.21
16,83,35,1,A,3.04
16,84,53,1,A,8.369
16,85,46,1,A,2.696
16,86,79,2,B,3.152
16,87,60,2,B,6.689
16,88,76,1,A,6.624
16,89,67,1,A,4.863
16,90,34,1,A,3.645
16,91,32,2,B,5.205
17,1,78,2,B,7.811
17,2,88,1,A,7.932
17,3,11,1,A,13.737
17,4,53,1,A,22.665
17,5,48,1,A,13.053
17,6,79,1,A,14.001
17,7,12,1,A,10.772
17,8,66,2,B,12.318
17,9,6,1,A,11.649
17,10,71,2,B,18.191
17,11,17,1,A,9.572
17,12,32,1,A,11.711
17,13,85,1,A,13.108
17,14,64,1,A,10.879
17,15,33,1,A,16.808
17,16,81,2,B,8.708
17,17,25,2,B,6.942
17,18,9,1,A,13.483
17,19,73,2,B,11.003
17,20,24,2,B,8.442
17,21,1,2,B,11.473
17,22,83,1,A,5.051
17,23,7,1,A,16.983
17,24,87,1,A,7.232
17,25,41,2,B,13.803
17,26,52,1,A,15.534
17,27,54,2,B,15.961
17,28,38,2,B,20.702
17,29,19,1,A,12.998
17,30,74,2,B,9.647
17,31,86,2,B,6.389
17,32,77,1,A,4.707
17,33,22,1,A,8.568
17,34,56,2,B,7.908
17,35,91,2,B,12.144
17,36,26,1,A,20.904
17,37,4,2,B,10.761
17,38,28,2,B,18.402
17,39,2,1,A,14.408
17,40,5,1,A,13.143
17,41,59,2,B,11.268
17,42,67,1,A,10.158
17,43,89,2,B,8.242
17,44,35,1,A,6.003
17,45,16,2,B,25.897
17,46,58,2,B,12.456
17,47,47,1,A,13.061
17,48,13,2,B,17.888
17,49,50,2,B,28.131
17,50,34,2,B,12.8
17,51,36,2,B,15.128
17,52,44,2,B,14.184
17,53,42,1,A,12.838
17,54,63,1,A,14.81
17,55,57,1,A,11.994
17,56,46,2,B,12.23
17,57,23,2,B,14.607
17,58,29,2,B,12.66
17,59,55,1,A,21.366
17,60,84,2,B,9.352
17,61,30,2,B,14.367
17,62,3,2,B,14.855
17,63,43,2,B,8.665
17,64,72,1,A,12.327
17,65,31,1,A,12.679
17,66,20,1,A,13.957
17,67,68,1,A,20.729
17,68,14,1,A,10.578
17,69,45,2,B,15.313
17,70,70,2,B,16.005
17,71,8,2,B,9.561
17,72,37,2,B,12.278
17,73,80,1,A,11.635
17,74,15,2,B,10.545
17,75,21,1,A,16.52
17,76,75,2,B,11.763
17,77,62,2,B,22.428
17,78,27,2,B,12.382
17,79,39,2,B,19.893
17,80,18,1,A,9.545
17,81,40,1,A,17.861
17,82,60,1,A,16.029
17,83,51,2,B,7.157
17,84,82,2,B,8.445
17,85,65,1,A,7.429
17,86,49,2,B,10.709
17,87,90,1,A,6.882
17,88,61,2,B,9.379
17,89,76,2,B,7.728
17,90,10,1,A,7.349
17,91,69,2,B,14.402
18,1,52,2,B,8.047
18,2,22,2,B,9.369
18,3,64,1,A,8.607
18,4,33,1,A,20.114
18,5,1,2,B,12.576
18,6,40,2,B,13.472
18,7,29,2,B,14.145
18,8,50,1,A,10.52
18,9,86,2,B,6.869
18,10,69,2,B,9.317
18,11,16,2,B,11.645
18,12,57,1,A,14.47
18,13,30,1,A,12.014
18,14,47,1,A,13.221
18,15,58,2,B,5.211
18,16,62,2,B,61.447
18,17,81,2,B,10.972
18,18,20,1,A,5.583
18,19,6,2,B,6.46
18,20,72,1,A,7.197
18,21,83,1,A,16.117
18,22,90,2,B,10.78
18,23,73,1,A,14.994
18,24,5,2,B,7.232
18,25,44,2,B,20.448
18,26,89,2,B,5.812
18,27,75,2,B,14.786
18,28,68,2,B,9.155
18,29,14,2,B,7.268
18,30,91,2,B,6.547
18,31,28,2,B,8.006
18,32,26,2,B,11.436
18,33,12,2,B,25.258
18,34,37,1,A,16.984
18,35,84,1,A,0
18,36,56,2,B,7.981
18,37,18,1,A,9.296
18,38,4,2,B,11.677
18,39,8,1,A,5.677
18,40,21,1,A,50.128
18,41,60,2,B,8.156
18,42,82,2,B,4.131
18,43,77,2,B,8.115
18,44,66,1,A,4.949
18,45,7,2,B,5.149
18,46,76,2,B,5.701
18,47,63,2,B,5.753
18,48,74,2,B,4.93
18,49,65,1,A,5.624
18,50,51,2,B,20.769
18,51,67,1,A,7.869
18,52,3,2,B,6.155
18,53,88,1,A,7.222
18,54,35,1,A,12.793
18,55,78,2,B,4.228
18,56,23,2,B,32.225
18,57,31,1,A,12.97
18,58,2,2,B,4.506
18,59,24,2,B,4.212
18,60,10,1,A,5.471
18,61,53,2,B,6.025
18,62,59,2,B,4.447
18,63,70,2,B,7.257
18,64,85,1,A,6.439
18,65,54,2,B,6.08
18,66,39,2,B,15.618
18,67,19,1,A,3.423
18,68,45,1,A,1.207
18,69,27,2,B,0.189
18,70,48,1,A,62.888
18,71,42,2,B,44.315
18,72,32,2,B,4.572
18,73,41,1,A,2.734
18,74,55,2,B,9.452
18,75,17,2,B,25.467
18,76,71,2,B,9.307
18,77,79,2,B,5.122
18,78,38,2,B,18.221
18,79,25,1,A,1.257
18,80,46,1,A,5.05
18,81,34,2,B,21.8
18,82,49,1,A,1.641
18,83,43,2,B,2.794
18,84,87,1,A,6.501
18,85,36,2,B,16.88
18,86,9,2,B,13.825
18,87,11,2,B,5.969
18,88,15,2,B,3.811
18,89,80,1,A,13.764
18,90,13,1,A,7.2
18,91,61,2,B,9.123
21,1,8,2,B,12.8
21,2,15,2,B,7.174
21,3,1,2,B,9.201
21,4,27,2,B,6.872
21,5,37,2,B,9.678
21,6,44,2,B,5.332
21,7,53,2,B,10.66
21,8,78,2,B,10.817
21,9,39,2,B,3.654
21,10,30,2,B,6.338
21,11,76,2,B,5.186
21,12,62,2,B,7.778
21,13,2,1,A,8.2
21,14,75,1,A,5.848
21,15,70,2,B,5.631
21,16,69,2,B,3.557
21,17,85,2,B,7.401
21,18,7,1,A,11.155
21,19,14,1,A,2.235
21,20,18,2,B,2.59
21,21,54,2,B,4.457
21,22,88,2,B,3.351
21,23,73,2,B,3.295
21,24,67,1,A,4.315
21,25,46,2,B,5.085
21,26,29,2,B,3.03
21,27,3,2,B,3.102
21,28,31,1,A,2.761
21,29,68,2,B,4.771
21,30,50,1,A,8.923
21,31,6,2,B,1.926
21,32,66,1,A,4.537
21,33,25,2,B,4.302
21,34,40,1,A,8.628
21,35,35,1,A,6.5
21,36,58,1,A,8.583
21,37,82,2,B,4.013
21,38,51,2,B,5.568
21,39,32,2,B,4.528
21,40,86,2,B,3.671
21,41,41,2,B,2.64
21,42,81,2,B,5.86
21,43,87,1,A,2.989
21,44,56,1,A,3.944
21,45,17,1,A,3.402
21,46,16,1,A,4.935
21,47,13,1,A,3.843
21,48,23,2,B,3.378
21,49,65,1,A,5.947
21,50,21,1,A,5.061
21,51,49,2,B,6.057
21,52,91,2,B,4.551
21,53,5,2,B,3.501
21,54,12,1,A,4.091
21,55,61,2,B,7.121
21,56,11,1,A,5.777
21,57,43,2,B,7.917
21,58,22,2,B,3.351
21,59,55,1,A,3.302
21,60,48,1,A,8.89
21,61,84,1,A,4.293
21,62,47,2,B,5.933
21,63,72,1,A,3.432
21,64,63,1,A,5.825
21,65,83,1,A,6.076
21,66,79,1,A,3.91
21,67,42,1,A,7.055
21,68,60,2,B,4.557
21,69,64,1,A,10.879
21,70,77,1,A,2.041
21,71,74,2,B,5.356
21,72,36,1,A,5.419
21,73,89,1,A,5.645
21,74,45,2,B,4.563
21,75,38,2,B,3.036
21,76,34,1,A,4.699
21,77,52,1,A,6.138
21,78,24,1,A,3.824
21,79,33,2,B,4.901
21,80,10,1,A,6.718
21,81,28,1,A,6.693
21,82,26,1,A,9.101
21,83,59,2,B,4.07
21,84,19,1,A,4.374
21,85,4,1,A,3.389
21,86,20,1,A,3.348
21,87,90,1,A,2.801
21,88,57,1,A,6.349
21,89,80,1,A,3.971
21,90,71,2,B,6.808
21,91,9,1,A,3.995
22,1,70,1,A,0.701
22,2,72,1,A,2.164
22,3,27,2,B,1.325
22,4,15,2,B,2.028
22,5,33,2,B,1.768
22,6,36,1,A,1.178
22,7,31,1,A,1.726
22,8,50,1,A,3.755
22,9,10,1,A,2.097
22,10,64,1,A,1.694
22,11,12,1,A,1.21
22,12,24,1,A,1.3
22,13,22,2,B,6.9
22,14,88,2,B,2.26
22,15,3,1,A,1.721
22,16,59,1,A,1.938
22,17,16,1,A,3.766
22,18,63,2,B,3.73
22,19,20,2,B,2.971
22,20,68,1,A,2.741
22,21,62,1,A,1.522
22,22,1,2,B,1.882
22,23,58,1,A,1.678
22,24,85,2,B,1.924
22,25,4,2,B,1.93
22,26,40,2,B,1.916
22,27,54,1,A,1.841
22,28,13,1,A,1.665
22,29,91,2,B,2.886
22,30,26,2,B,2.024
22,31,82,2,B,5.084
22,32,49,1,A,3.554
22,33,61,1,A,2.2
22,34,38,1,A,1.9
22,35,42,1,A,1.4
22,36,25,2,B,1.591
22,37,71,1,A,5.668
22,38,55,1,A,1.981
22,39,90,1,A,3.461
22,40,7,2,B,3.174
22,41,74,1,A,1.274
22,42,56,1,A,2.169
22,43,29,1,A,1.449
22,44,46,1,A,2.036
22,45,34,2,B,1.429
22,46,14,2,B,1.684
22,47,18,2,B,0.927
22,48,75,2,B,1.29
22,49,47,2,B,1.519
22,50,78,2,B,2.2
22,51,48,1,A,1.487
22,52,67,1,A,1.063
22,53,69,2,B,1.096
22,54,51,1,A,1.167
22,55,23,1,A,1.182
22,56,76,1,A,4.392
22,57,9,1,A,2.852
22,58,45,2,B,0.827
22,59,30,2,B,1.142
22,60,87,2,B,1.452
22,61,11,2,B,10.885
22,62,79,1,A,2.301
22,63,73,1,A,1.278
22,64,83,2,B,2.531
22,65,86,1,A,1.574
22,66,5,1,A,1.064
22,67,6,2,B,1.04
22,68,35,1,A,1.066
22,69,65,2,B,1.385
22,70,43,2,B,2.141
22,71,66,2,B,2.386
22,72,52,1,A,1.975
22,73,39,1,A,2.384
22,74,44,2,B,1.132
22,75,21,1,A,1.933
22,76,77,1,A,1.636
22,77,80,2,B,8.335
22,78,60,2,B,1.4
22,79,89,1,A,0.845
22,80,19,1,A,1.092
22,81,84,1,A,0.639
22,82,8,2,B,0.733
22,83,41,2,B,1.183
22,84,28,1,A,1.076
22,85,17,1,A,1.392
22,86,81,1,A,2.066
22,87,53,2,B,1.356
22,88,2,1,A,0.8
22,89,32,2,B,0.643
22,90,37,2,B,1.501
22,91,57,1,A,1.573
23,1,76,2,B,5.313
23,2,31,2,B,8.807
23,3,89,2,B,9.189
23,4,91,2,B,5.202
23,5,45,1,A,9.134
23,6,59,2,B,8.383
23,7,41,2,B,11.555
23,8,74,2,B,5.401
23,9,60,1,A,5.401
23,10,77,1,A,13.018
23,11,16,1,A,6.058
23,12,27,2,B,9.961
23,13,4,2,B,9.64
23,14,64,2,B,5.636
23,15,54,2,B,7.879
23,16,68,1,A,3.875
23,17,71,2,B,10.795
23,18,29,2,B,11.66
23,19,18,2,B,4.999
23,20,85,2,B,2.657
23,21,82,2,B,6.975
23,22,38,1,A,80.892
23,23,86,2,B,7.726
23,24,87,2,B,4.577
23,25,56,1,A,4.622
23,26,6,2,B,4.4
23,27,69,2,B,7.541
23,28,36,2,B,11.028
23,29,80,2,B,4.38
23,30,17,2,B,4.225
23,31,8,2,B,4.6
23,32,47,1,A,8.221
23,33,25,2,B,4.944
23,34,83,1,A,4.676
23,35,11,1,A,7.46
23,36,88,1,A,2.15
23,37,37,2,B,4.489
23,38,26,2,B,14.945
23,39,42,1,A,11.625
23,40,34,1,A,6.9
23,41,32,2,B,3.12
23,42,5,1,A,5.5
23,43,51,1,A,9.014
23,44,44,2,B,2.421
23,45,22,2,B,3.876
23,46,23,2,B,2.259
23,47,66,2,B,2.896
23,48,46,2,B,3.373
23,49,14,1,A,1.697
23,50,48,2,B,5.181
23,51,40,2,B,5.08
23,52,81,1,A,1.966
23,53,2,1,A,0.774
23,54,19,2,B,0.001
23,55,43,1,A,0
23,56,15,2,B,0.429
23,57,58,2,B,0.001
23,58,65,2,B,0.001
23,59,21,2,B,0.001
23,60,39,1,A,0.001
23,61,53,1,A,0
23,62,52,1,A,0.001
23,63,28,1,A,0.001
23,64,24,1,A,0.001
23,65,49,2,B,0.443
23,66,30,2,B,0.011
23,67,63,2,B,0.001
23,68,7,2,B,0.001
23,69,67,1,A,0.001
23,70,50,1,A,0.386
23,71,10,2,B,0.001
23,72,13,2,B,0.315
23,73,61,2,B,0.001
23,74,57,2,B,0.012
23,75,12,2,B,0.001
23,76,90,2,B,0
23,77,1,2,B,0.001
23,78,72,1,A,0.23
23,79,73,2,B,0.073
23,80,35,2,B,0
23,81,55,2,B,0.001
23,82,79,1,A,0.444
23,83,33,1,A,0.013
23,84,9,1,A,0.3
23,85,70,1,A,0.001
23,86,84,1,A,0.001
23,87,3,1,A,0.001
23,88,75,1,A,0.03
23,89,62,1,A,0
23,90,78,1,A,0.228
23,91,20,2,B,0.281
24,1,69,1,A,98.624
24,2,66,2,B,67.275
24,3,30,2,B,41.801
24,4,15,2,B,4.549
24,5,18,2,B,30.858
24,6,32,1,A,33.683
24,7,51,1,A,25.682
24,8,33,1,A,25.39
24,9,63,1,A,23.013
24,10,12,1,A,15.08
24,11,65,1,A,8.862
24,12,87,2,B,25.265
24,13,24,2,B,44.762
24,14,7,2,B,4.065
24,15,19,1,A,5.147
24,16,85,1,A,2.685
24,17,67,1,A,13.472
24,18,82,2,B,12.901
24,19,28,1,A,28.843
24,20,50,1,A,18.522
24,21,53,2,B,18.053
24,22,55,2,B,7.001
24,23,90,1,A,17.181
24,24,22,2,B,28.14
24,25,52,1,A,6.775
24,26,35,1,A,7.347
24,27,16,1,A,93.182
24,28,29,1,A,17.413
24,29,38,2,B,0
24,30,37,2,B,10.342
24,31,44,2,B,9.779
24,32,42,2,B,18.4
24,33,74,1,A,1.768
24,34,78,2,B,3.445
24,35,68,1,A,7.212
24,36,61,1,A,4.864
24,37,41,2,B,2.279
24,38,58,2,B,1.047
24,39,4,2,B,1.312
24,40,8,2,B,1.352
24,41,43,1,A,2.349
24,42,5,1,A,1.11
24,43,49,2,B,0.867
24,44,64,2,B,0.576
24,45,23,1,A,1.128
24,46,48,1,A,1.647
24,47,70,1,A,1.097
24,48,60,2,B,1.386
24,49,57,1,A,0.77
24,50,46,2,B,1.328
24,51,59,2,B,0.398
24,52,54,1,A,1.653
24,53,13,1,A,1.801
24,54,76,2,B,2.495
24,55,34,2,B,6.271
24,56,79,1,A,1.954
24,57,27,2,B,3.071
24,58,25,2,B,2.561
24,59,3,1,A,1.647
24,60,91,2,B,7.215
24,61,80,1,A,2.592
24,62,40,2,B,11.596
24,63,47,1,A,4.899
24,64,56,2,B,4.771
24,65,62,2,B,6.781
24,66,86,1,A,6.799
24,67,77,1,A,10.896
24,68,72,1,A,17.468
24,69,73,2,B,8.226
24,70,20,1,A,2.069
24,71,75,1,A,3.402
24,72,89,1,A,2.926
24,73,9,1,A,1.901
24,74,88,2,B,3.536
24,75,83,2,B,6.101
24,76,1,2,B,2.252
24,77,71,2,B,4.612
24,78,39,2,B,6.397
24,79,10,1,A,1.61
24,80,17,1,A,1.229
24,81,11,1,A,1.284
24,82,26,1,A,1.626
24,83,2,2,B,2.121
24,84,81,2,B,2.25
24,85,84,1,A,2.14
24,86,45,2,B,5.765
24,87,14,1,A,5.459
24,88,36,2,B,17.602
24,89,21,1,A,1.935
24,90,6,2,B,1.552
24,91,31,1,A,2.051
26,1,89,2,B,21.238
26,2,79,1,A,11.35
26,3,8,2,B,11.578
26,4,60,2,B,9.835
26,5,58,2,B,10.246
26,6,51,1,A,16.233
26,7,80,1,A,6.536
26,8,7,2,B,9.668
26,9,13,2,B,15.761
26,10,67,1,A,10.079
26,11,49,2,B,15.253
26,12,75,2,B,10.897
26,13,24,2,B,8.4
26,14,68,2,B,12.399
26,15,77,2,B,4.402
26,16,28,2,B,18.06
26,17,84,2,B,6.434
26,18,88,2,B,18.588
26,19,1,2,B,8
26,20,36,1,A,13.689
26,21,74,2,B,44.422
26,22,48,1,A,8.923
26,23,64,1,A,7.998
26,24,69,2,B,6.277
26,25,41,2,B,6.041
26,26,54,2,B,7.087
26,27,42,1,A,11.422
26,28,65,1,A,7.997
26,29,78,1,A,2.284
26,30,12,2,B,11.887
26,31,30,1,A,8.801
26,32,38,1,A,9.332
26,33,71,2,B,13.984
26,34,35,2,B,4.821
26,35,29,2,B,10.401
26,36,90,1,A,14.718
26,37,32,1,A,3.333
26,38,73,1,A,7.367
26,39,70,1,A,6.433
26,40,4,2,B,3.849
26,41,57,1,A,8.086
26,42,3,1,A,3.902
26,43,59,2,B,28.49
26,44,16,1,A,7.485
26,45,20,1,A,5.944
26,46,86,2,B,7.175
26,47,26,2,B,5.1
26,48,83,1,A,4.669
26,49,21,1,A,4.596
26,50,62,2,B,7.57
26,51,23,2,B,11.62
26,52,81,2,B,9.765
26,53,50,1,A,12.055
26,54,31,1,A,14.557
26,55,44,2,B,7.545
26,56,2,1,A,4.162
26,57,46,2,B,10.61
26,58,52,1,A,10.109
26,59,18,1,A,1.937
26,60,87,1,A,6.469
26,61,63,2,B,9.479
26,62,91,2,B,8.364
26,63,56,2,B,9.236
26,64,6,2,B,6.77
26,65,14,1,A,7.521
26,66,15,2,B,8.084
26,67,43,2,B,8.832
26,68,55,2,B,13.496
26,69,72,2,B,2.868
26,70,10,2,B,5.918
26,71,11,2,B,5.909
26,72,33,1,A,10.097
26,73,27,2,B,3.112
26,74,39,1,A,5.1
26,75,61,2,B,2.401
26,76,66,2,B,3.634
26,77,76,1,A,1.385
26,78,5,1,A,11.164
26,79,82,1,A,8.289
26,80,19,1,A,6.614
26,81,22,1,A,6.715
26,82,34,1,A,6.7
26,83,17,1,A,8.086
26,84,37,2,B,12.622
26,85,45,2,B,1.597
26,86,85,1,A,0.99
26,87,40,1,A,9.859
26,88,9,2,B,7.858
26,89,47,1,A,5.549
26,90,53,1,A,8.775
26,91,25,2,B,4.926
27,1,77,1,A,5.768
27,2,86,2,B,7.142
27,3,36,1,A,4.254
27,4,75,1,A,1.281
27,5,8,2,B,0.629
27,6,89,1,A,2.122
27,7,27,1,A,5.115
27,8,5,1,A,6.778
27,9,24,1,A,6.403
27,10,2,1,A,1.672
27,11,9,1,A,1.087
27,12,60,2,B,3.771
27,13,6,2,B,4.038
27,14,73,1,A,5.264
27,15,19,1,A,1.861
27,16,13,1,A,6.257
27,17,62,1,A,4.872
27,18,11,1,A,5.775
27,19,1,1,A,4.799
27,20,41,1,A,1.331
27,21,49,2,B,2.57
27,22,83,1,A,7.155
27,23,55,1,A,2.822
27,24,20,1,A,2.739
27,25,31,2,B,5.723
27,26,42,2,B,3.645
27,27,81,2,B,6.754
27,28,69,1,A,4.8
27,29,35,1,A,8.986
27,30,68,2,B,4.616
27,31,64,1,A,1.081
27,32,4,2,B,7.773
27,33,78,1,A,1.241
27,34,80,1,A,12.633
27,35,29,2,B,6.936
27,36,48,2,B,2.773
27,37,23,2,B,1.766
27,38,46,1,A,1.128
27,39,54,1,A,1.124
27,40,72,2,B,2.101
27,41,74,2,B,1.879
27,42,28,2,B,1.739
27,43,50,2,B,3.381
27,44,45,1,A,6.415
27,45,88,1,A,3.892
27,46,90,1,A,4.09
27,47,17,2,B,4.615
27,48,38,1,A,1.45
27,49,82,2,B,1.901
27,50,21,2,B,2.659
27,51,63,1,A,2.79
27,52,58,2,B,4.2
27,53,53,1,A,3.947
27,54,61,1,A,5.877
27,55,12,1,A,1.143
27,56,85,2,B,0.911
27,57,43,2,B,0.361
27,58,30,2,B,5.596
27,59,44,2,B,3.982
27,60,66,2,B,1.048
27,61,7,1,A,1.862
27,62,84,1,A,1.835
27,63,79,1,A,2.563
27,64,56,2,B,2.4
27,65,67,1,A,0.911
27,66,15,2,B,0.4
27,67,76,2,B,2.801
27,68,87,2,B,2.335
27,69,47,1,A,4.498
27,70,37,1,A,6.634
27,71,32,1,A,0.719
27,72,25,2,B,1.795
27,73,70,1,A,1.282
27,74,40,1,A,3.742
27,75,18,2,B,3.2
27,76,3,1,A,1.115
27,77,57,1,A,0.571
27,78,71,1,A,21.293
27,79,65,2,B,1.865
27,80,59,2,B,0.157
27,81,22,2,B,0.797
27,82,14,1,A,0.922
27,83,26,2,B,1.059
27,84,10,2,B,1.516
27,85,16,2,B,2.428
27,86,39,1,A,2.769
27,87,34,2,B,2.001
27,88,51,1,A,3.868
27,89,33,1,A,0.721
27,90,91,2,B,1.049
27,91,52,1,A,6
28,1,86,2,B,18.502
28,2,15,2,B,7.701
28,3,76,1,A,6.968
28,4,44,1,A,7.301
28,5,20,1,A,7.401
28,6,37,2,B,9.859
28,7,49,2,B,18.6
28,8,31,1,A,10.755
28,9,36,1,A,4.481
28,10,80,1,A,6.398
28,11,24,2,B,12.498
28,12,22,2,B,6.36
28,13,58,2,B,7.788
28,14,32,2,B,6.76
28,15,52,1,A,6.986
28,16,59,2,B,15.34
28,17,17,1,A,15.601
28,18,35,1,A,7.401
28,19,56,1,A,9.542
28,20,90,1,A,5.654
28,21,75,1,A,5.843
28,22,51,2,B,8.876
28,23,54,1,A,7.475
28,24,88,1,A,7.37
28,25,40,1,A,13.9
28,26,87,1,A,9.046
28,27,26,1,A,5.387
28,28,89,2,B,8.994
28,29,64,1,A,15.645
28,30,11,1,A,9.088
28,31,71,2,B,7.301
28,32,19,2,B,6.601
28,33,68,1,A,4.101
28,34,55,2,B,9.901
28,35,39,2,B,11.401
28,36,25,2,B,9.665
28,37,50,1,A,13.944
28,38,85,1,A,8.744
28,39,43,1,A,8.862
28,40,38,2,B,11.888
28,41,77,2,B,7.868
28,42,3,2,B,5.242
28,43,78,1,A,5.201
28,44,16,1,A,10.458
28,45,10,1,A,4.774
28,46,84,2,B,7.253
28,47,72,1,A,5.942
28,48,34,1,A,6.001
28,49,41,2,B,4.902
28,50,1,2,B,9.753
28,51,30,1,A,8.401
28,52,28,1,A,13.073
28,53,21,1,A,8.08
28,54,62,1,A,6.701
28,55,65,1,A,7.789
28,56,6,1,A,8.153
28,57,91,2,B,6.687
28,58,7,2,B,9.097
28,59,5,1,A,7.588
28,60,81,2,B,6.193
28,61,42,2,B,6.838
28,62,82,2,B,9.402
28,63,18,2,B,11.384
28,64,69,1,A,12.178
28,65,8,2,B,6.667
28,66,23,2,B,8.44
28,67,79,2,B,4.9
28,68,4,2,B,16.401
28,69,61,2,B,13.681
28,70,63,1,A,11.597
28,71,60,2,B,10.601
28,72,29,2,B,8.782
28,73,9,2,B,8.372
28,74,13,1,A,8.159
28,75,46,2,B,7.901
28,76,33,2,B,8.385
28,77,83,1,A,5.782
28,78,48,1,A,4.5
28,79,12,2,B,4.663
28,80,53,1,A,7.696
28,81,2,1,A,13.547
28,82,67,1,A,7.547
28,83,70,2,B,9.883
28,84,74,2,B,7.595
28,85,57,1,A,8.901
28,86,47,1,A,14.046
28,87,66,1,A,12.001
28,88,14,1,A,7.402
28,89,45,2,B,10.443
28,90,27,2,B,8.268
28,91,73,1,A,8.3
29,1,1,1,A,3.87
29,2,38,1,A,13.225
29,3,2,2,B,8.464
29,4,70,2,B,4.09
29,5,3,1,A,5.426
29,6,34,2,B,10.342
29,7,56,2,B,2.677
29,8,31,1,A,2.653
29,9,43,1,A,6.634
29,10,65,1,A,3.472
29,11,64,1,A,3.358
29,12,18,1,A,5.518
29,13,86,2,B,4.723
29,14,39,2,B,3.523
29,15,55,1,A,5.449
29,16,4,2,B,5.818
29,17,8,2,B,6.316
29,18,89,1,A,6.229
29,19,66,1,A,2.86
29,20,35,1,A,6.387
29,21,41,2,B,4.118
29,22,5,2,B,7.886
29,23,36,1,A,3.59
29,24,59,1,A,9.515
29,25,20,1,A,10.471
29,26,46,1,A,1.818
29,27,49,2,B,1.726
29,28,52,2,B,1.683
29,29,53,1,A,1.876
29,30,12,1,A,5.339
29,31,69,2,B,6.125
29,32,51,2,B,5.445
29,33,58,1,A,1.723
29,34,88,2,B,2.284
29,35,37,1,A,1.977
29,36,44,2,B,2.792
29,37,24,1,A,2.463
29,38,23,2,B,1.019
29,39,29,1,A,2.989
29,40,48,2,B,2.464
29,41,13,1,A,6.646
29,42,72,1,A,2.009
29,43,33,2,B,6.363
29,44,91,2,B,7.985
29,45,9,2,B,4.619
29,46,68,2,B,4.093
29,47,75,1,A,4.782
29,48,73,2,B,4.43
29,49,40,2,B,14.886
29,50,27,1,A,3.532
29,51,61,1,A,6.036
29,52,76,2,B,5.163
29,53,79,1,A,3.324
29,54,14,1,A,10.291
29,55,10,2,B,5.786
29,56,26,2,B,4.566
29,57,74,2,B,5.217
29,58,28,1,A,18.362
29,59,30,2,B,5.395
29,60,15,1,A,1.482
29,61,81,1,A,3.773
29,62,7,2,B,6.933
29,63,57,1,A,7.899
29,64,25,2,B,1.717
29,65,11,2,B,2.89
29,66,83,1,A,7.548
29,67,6,2,B,4.282
29,68,63,1,A,6.294
29,69,84,2,B,4.797
29,70,45,2,B,5.501
29,71,22,2,B,2.81
29,72,90,1,A,1.949
29,73,67,1,A,4.729
29,74,85,2,B,5.386
29,75,71,1,A,5.632
29,76,50,2,B,0.777
29,77,77,1,A,1.938
29,78,82,2,B,1.599
29,79,32,1,A,2.096
29,80,42,1,A,6.033
29,81,80,2,B,3.381
29,82,62,2,B,0.968
29,83,47,1,A,6.05
29,84,16,2,B,4.884
29,85,87,1,A,4.58
29,86,60,2,B,3.483
29,87,78,2,B,2.512
29,88,17,2,B,3.279
29,89,19,1,A,4.972
29,90,21,1,A,3.015
29,91,54,2,B,4.084
32,1,47,2,B,21.823
32,2,73,2,B,6.876
32,3,70,1,A,38.197
32,4,63,2,B,5.133
32,5,69,2,B,1.264
32,6,32,1,A,5.243
32,7,78,2,B,3.01
32,8,85,1,A,5.628
32,9,11,1,A,4.148
32,10,82,2,B,3.204
32,11,59,2,B,8.904
32,12,12,2,B,7.72
32,13,40,2,B,11.344
32,14,14,2,B,1.952
32,15,90,1,A,0.501
32,16,30,2,B,1.272
32,17,42,2,B,1.498
32,18,16,1,A,0.625
32,19,22,2,B,2.091
32,20,86,1,A,1.842
32,21,54,1,A,1.337
32,22,60,1,A,1.834
32,23,38,2,B,2.804
32,24,8,1,A,1.903
32,25,5,1,A,0.987
32,26,31,2,B,1.994
32,27,29,1,A,1.961
32,28,68,1,A,2.343
32,29,71,2,B,2.799
32,30,87,2,B,4.678
32,31,81,1,A,4.664
32,32,49,2,B,2.834
32,33,2,2,B,8.77
32,34,55,2,B,3.149
32,35,56,1,A,1.568
32,36,6,2,B,2.886
32,37,57,1,A,0.446
32,38,26,1,A,2.263
32,39,64,2,B,2.904
32,40,61,1,A,0.744
32,41,91,2,B,7.606
32,42,66,2,B,2.2
32,43,19,1,A,1.738
32,44,77,2,B,3.747
32,45,9,1,A,2.345
32,46,39,2,B,3.193
32,47,41,1,A,1.396
32,48,83,1,A,3.243
32,49,88,1,A,1.8
32,50,17,1,A,1.765
32,51,3,2,B,2.086
32,52,76,2,B,4.033
32,53,23,2,B,1.701
32,54,62,1,A,3.738
32,55,45,2,B,3.08
32,56,15,2,B,1.649
32,57,34,1,A,3.801
32,58,21,2,B,2.672
32,59,10,1,A,3.347
32,60,44,2,B,0.756
32,61,43,1,A,0.707
32,62,25,2,B,1.406
32,63,58,2,B,6.927
32,64,35,2,B,2.404
32,65,48,1,A,2.545
32,66,46,1,A,1.494
32,67,79,2,B,0.95
32,68,50,1,A,1.79
32,69,4,2,B,2.07
32,70,84,2,B,2.164
32,71,13,1,A,1.704
32,72,24,2,B,7.27
32,73,18,2,B,4.695
32,74,36,2,B,3.389
32,75,72,2,B,4.545
32,76,65,1,A,1.875
32,77,7,2,B,3.491
32,78,74,1,A,2.374
32,79,80,2,B,6.37
32,80,1,1,A,5.159
32,81,53,2,B,7.332
32,82,27,1,A,2.14
32,83,52,2,B,3.122
32,84,75,1,A,3.512
32,85,89,2,B,3.367
32,86,51,1,A,1.553
32,87,28,2,B,3.769
32,88,67,2,B,3.382
32,89,33,1,A,1.573
32,90,37,1,A,4.374
32,91,20,1,A,6.13
33,1,56,1,A,27.865
33,2,15,1,A,12.162
33,3,61,1,A,8.42
33,4,43,1,A,5.228
33,5,88,2,B,6.954
33,6,8,2,B,7.154
33,7,10,1,A,5.738
33,8,16,2,B,4.659
33,9,73,2,B,12.701
33,10,69,2,B,4.251
33,11,82,2,B,3.274
33,12,4,1,A,4.107
33,13,87,2,B,3.242
33,14,52,1,A,3.811
33,15,66,2,B,3.076
33,16,90,1,A,3.802
33,17,9,2,B,2.303
33,18,12,2,B,2.902
33,19,31,1,A,4.264
33,20,57,1,A,9.619
33,21,83,1,A,4.409
33,22,80,2,B,9.82
33,23,70,1,A,3.944
33,24,50,2,B,10.139
33,25,49,1,A,3.073
33,26,35,1,A,4.584
33,27,64,1,A,7.889
33,28,76,2,B,4.574
33,29,47,2,B,1.518
33,30,26,1,A,7.778
33,31,11,1,A,1.773
33,32,20,2,B,2.903
33,33,36,1,A,5.674
33,34,17,1,A,7.087
33,35,84,1,A,5.238
33,36,91,2,B,6.977
33,37,41,1,A,2.904
33,38,30,1,A,3.561
33,39,60,2,B,5.366
33,40,28,1,A,4.745
33,41,68,2,B,3.62
33,42,1,2,B,7.16
33,43,51,2,B,4.092
33,44,54,1,A,2.279
33,45,71,1,A,5.002
33,46,25,2,B,4.502
33,47,81,1,A,4.142
33,48,38,1,A,2.62
33,49,19,1,A,4.339
33,50,72,1,A,3.229
33,51,39,1,A,2.084
33,52,86,2,B,4.357
33,53,22,2,B,2.582
33,54,78,1,A,1.023
33,55,74,2,B,7.269
33,56,18,2,B,4.194
33,57,44,2,B,2.317
33,58,89,1,A,3.359
33,59,62,2,B,2.581
33,60,29,2,B,1.752
33,61,59,1,A,4.119
33,62,14,1,A,2.556
33,63,21,1,A,2.36
33,64,13,1,A,2.478
33,65,79,1,A,3.325
33,66,37,2,B,6.411
33,67,48,1,A,4.593
33,68,85,1,A,4.094
33,69,2,2,B,2.552
33,70,33,2,B,2.136
33,71,40,1,A,6.407
33,72,77,2,B,3.454
33,73,65,1,A,2.996
33,74,27,2,B,4.205
33,75,67,1,A,4.628
33,76,7,2,B,4.667
33,77,32,1,A,1.745
33,78,63,1,A,6.637
33,79,55,2,B,3.771
33,80,3,1,A,1.906
33,81,5,2,B,2.562
33,82,42,2,B,2.427
33,83,24,1,A,3.165
33,84,6,2,B,2.327
33,85,46,1,A,2.669
33,86,34,1,A,1.837
33,87,75,1,A,1.644
33,88,53,1,A,3.147
33,89,23,2,B,2.267
33,90,58,2,B,3.543
33,91,45,2,B,1.913
34,1,82,1,A,11.446
34,2,63,2,B,11.008
34,3,74,1,A,5.931
34,4,25,2,B,5.285
34,5,62,1,A,5.65
34,6,44,1,A,4.717
34,7,87,1,A,4.448
34,8,53,2,B,8.019
34,9,39,1,A,4.939
34,10,77,1,A,1.45
34,11,50,2,B,1.932
34,12,69,1,A,2.019
34,13,75,1,A,2.964
34,14,3,2,B,1.536
34,15,37,1,A,3.379
34,16,84,2,B,2.044
34,17,32,2,B,1.525
34,18,66,2,B,1.672
34,19,12,2,B,1.588
34,20,65,2,B,2.201
34,21,31,1,A,6.214
34,22,4,2,B,4.846
34,23,26,2,B,7.567
34,24,54,2,B,11.505
34,25,42,1,A,2.085
34,26,80,2,B,1.265
34,27,43,2,B,1.219
34,28,8,1,A,2.347
34,29,89,2,B,1.265
34,30,33,1,A,5.993
34,31,71,1,A,6.204
34,32,41,1,A,7.193
34,33,35,2,B,2.652
34,34,2,2,B,6.562
34,35,48,2,B,3.671
34,36,24,2,B,1.862
34,37,90,2,B,1.19
34,38,36,1,A,1.788
34,39,47,1,A,4.13
34,40,85,1,A,5.061
34,41,7,1,A,1.475
34,42,28,1,A,2.25
34,43,81,1,A,1.128
34,44,64,2,B,2.786
34,45,88,1,A,1.928
34,46,19,2,B,1.22
34,47,83,1,A,1.467
34,48,22,1,A,0.955
34,49,78,2,B,0.901
34,50,27,2,B,2.484
34,51,30,1,A,4.359
34,52,68,2,B,2.698
34,53,72,2,B,1.071
34,54,1,2,B,4.205
34,55,70,1,A,1.772
34,56,86,2,B,1.393
34,57,17,1,A,3.681
34,58,34,2,B,3.03
34,59,29,2,B,9.708
34,60,91,2,B,3.101
34,61,18,2,B,5.232
34,62,58,1,A,1.661
34,63,21,1,A,2.405
34,64,46,1,A,3.379
34,65,6,2,B,1.93
34,66,14,1,A,1.972
34,67,40,2,B,3.007
34,68,76,2,B,0.702
34,69,52,1,A,5.308
34,70,57,1,A,3.24
34,71,16,2,B,3.353
34,72,11,2,B,12.054
34,73,38,1,A,2.297
34,74,59,1,A,4.099
34,75,67,1,A,2.089
34,76,56,1,A,7.904
34,77,5,1,A,1.499
34,78,79,1,A,1.424
34,79,45,2,B,3.938
34,80,51,1,A,2.328
34,81,49,1,A,1.404
34,82,73,2,B,1.511
34,83,61,1,A,1.744
34,84,10,1,A,2.331
34,85,13,1,A,3.403
34,86,15,1,A,3.196
34,87,60,2,B,4.532
34,88,20,1,A,2.506
34,89,9,2,B,1.605
34,90,23,1,A,3.082
34,91,55,1,A,1.924
35,1,54,1,A,8.831
35,2,91,2,B,4.273
35,3,79,2,B,4.335
35,4,31,1,A,7.807
35,5,13,2,B,19.201
35,6,88,2,B,6.283
35,7,46,2,B,7.343
35,8,4,1,A,7.118
35,9,8,2,B,6.193
35,10,12,1,A,3.591
35,11,66,2,B,5.531
35,12,20,1,A,3.754
35,13,82,1,A,4.8
35,14,68,1,A,4.969
35,15,37,2,B,7.523
35,16,41,1,A,7.046
35,17,86,1,A,26.154
35,18,87,2,B,4.558
35,19,43,1,A,6.527
35,20,81,2,B,4.762
35,21,38,2,B,5.114
35,22,39,2,B,6.532
35,23,21,1,A,4.84
35,24,73,2,B,6.997
35,25,18,1,A,3.88
35,26,32,2,B,7.24
35,27,7,1,A,5.884
35,28,59,2,B,5.8
35,29,15,2,B,5.565
35,30,33,2,B,5.705
35,31,19,1,A,8.034
35,32,78,1,A,3.536
35,33,89,1,A,7.062
35,34,35,1,A,4.001
35,35,70,2,B,4.288
35,36,6,2,B,4.988
35,37,64,1,A,6.273
35,38,3,2,B,9.352
35,39,71,2,B,8.73
35,40,85,1,A,4.93
35,41,47,1,A,8.127
35,42,60,1,A,6.712
35,43,90,1,A,3.964
35,44,10,1,A,5.238
35,45,67,1,A,4.154
35,46,28,1,A,10.129
35,47,29,1,A,5.327
35,48,69,1,A,6.596
35,49,30,2,B,9.694
35,50,83,1,A,3.687
35,51,84,2,B,3.664
35,52,55,1,A,5.128
35,53,53,1,A,5.437
35,54,42,2,B,4.889
35,55,36,1,A,6.443
35,56,45,2,B,7.305
35,57,80,1,A,8.332
35,58,52,1,A,8.246
35,59,34,2,B,4.737
35,60,57,2,B,5.853
35,61,17,1,A,6.109
35,62,72,1,A,5.422
35,63,1,2,B,8.599
35,64,62,1,A,7.219
35,65,40,1,A,5.889
35,66,9,1,A,8.156
35,67,22,2,B,4.032
35,68,26,1,A,7.218
35,69,16,2,B,6.378
35,70,24,2,B,6.18
35,71,48,1,A,9.108
35,72,27,2,B,8.946
35,73,76,1,A,3.551
35,74,23,2,B,3.995
35,75,44,2,B,14.736
35,76,77,2,B,2.986
35,77,14,1,A,4.001
35,78,2,2,B,4.704
35,79,49,1,A,6.213
35,80,58,2,B,8.795
35,81,75,2,B,7.156
35,82,61,2,B,11.782
35,83,50,1,A,6.77
35,84,63,1,A,6.009
35,85,51,2,B,4.966
35,86,74,2,B,5.863
35,87,65,1,A,4.507
35,88,56,2,B,5.543
35,89,5,1,A,6.093
35,90,11,1,A,5.658
35,91,25,2,B,5.281
36,1,86,2,B,17.34
36,2,32,2,B,40.786
36,3,14,1,A,11.395
36,4,69,2,B,26.087
36,5,68,1,A,17.577
36,6,31,1,A,23.2
36,7,40,1,A,13.375
36,8,6,2,B,9.291
36,9,67,1,A,19.8
36,10,13,1,A,31.947
36,11,49,2,B,19
36,12,28,1,A,14.176
36,13,16,2,B,14.3
36,14,20,1,A,13.89
36,15,30,1,A,18.343
36,16,81,2,B,11.246
36,17,26,1,A,9.457
36,18,36,1,A,12.861
36,19,66,1,A,12.18
36,20,57,2,B,14.601
36,21,22,2,B,11.003
36,22,53,1,A,20.042
36,23,43,1,A,24.677
36,24,21,2,B,13.628
36,25,38,1,A,16.853
36,26,7,1,A,16.083
36,27,46,2,B,22.4
36,28,55,2,B,15.136
36,29,5,1,A,11.092
36,30,71,2,B,11.442
36,31,82,2,B,11.001
36,32,74,2,B,12.187
36,33,41,2,B,18.701
36,34,70,2,B,14.997
36,35,9,1,A,10.193
36,36,79,1,A,13.501
36,37,10,1,A,9.325
36,38,76,2,B,7.496
36,39,60,2,B,14.468
36,40,44,2,B,11.501
36,41,18,1,A,22.2
36,42,90,1,A,17.775
36,43,58,2,B,9.4
36,44,78,2,B,6.76
36,45,27,2,B,21.043
36,46,83,1,A,10.556
36,47,3,2,B,10.894
36,48,37,2,B,13.3
36,49,4,1,A,9.753
36,50,24,2,B,9.139
36,51,64,1,A,12.992
36,52,19,2,B,10.499
36,53,50,2,B,11.497
36,54,72,1,A,18.001
36,55,61,1,A,14.149
36,56,91,2,B,7.931
36,57,56,2,B,22.078
36,58,45,1,A,18.26
36,59,59,2,B,18.096
36,60,62,2,B,9.925
36,61,39,2,B,15.444
36,62,87,1,A,13.67
36,63,51,2,B,11.638
36,64,34,2,B,13.071
36,65,8,2,B,11.571
36,66,52,1,A,14.268
36,67,35,1,A,14.636
36,68,47,1,A,12.952
36,69,42,2,B,19.3
36,70,73,2,B,21.701
36,71,12,2,B,11.885
36,72,33,2,B,20.892
36,73,80,1,A,14.972
36,74,85,1,A,11.797
36,75,29,2,B,20.258
36,76,88,1,A,14.765
36,77,89,2,B,7.2
36,78,15,1,A,10.377
36,79,1,2,B,16.258
36,80,77,2,B,13.101
36,81,2,1,A,14.638
36,82,48,1,A,9.495
36,83,23,2,B,7.297
36,84,75,1,A,11.542
36,85,84,2,B,13.535
36,86,63,1,A,21.07
36,87,65,1,A,9.559
36,88,17,2,B,10.4
36,89,11,1,A,13.337
36,90,54,2,B,14.546
36,91,25,2,B,10.9
37,1,52,1,A,10.975
37,2,56,2,B,7.688
37,3,23,2,B,13.506
37,4,10,1,A,8.321
37,5,78,1,A,21.049
37,6,30,2,B,13.032
37,7,81,2,B,6.26
37,8,45,2,B,9.206
37,9,21,1,A,7.225
37,10,65,1,A,8.178
37,11,11,1,A,14.571
37,12,4,1,A,13.138
37,13,55,2,B,6.857
37,14,80,1,A,4.207
37,15,37,1,A,13.402
37,16,53,1,A,20.024
37,17,36,1,A,9.067
37,18,88,2,B,6.157
37,19,20,1,A,6.753
37,20,69,2,B,13.124
37,21,33,2,B,9.996
37,22,22,2,B,8.754
37,23,16,1,A,7.767
37,24,63,1,A,14.581
37,25,9,2,B,9.322
37,26,83,1,A,7.607
37,27,71,2,B,8.84
37,28,62,2,B,11.949
37,29,43,1,A,12.208
37,30,75,1,A,4.932
37,31,82,2,B,4.241
37,32,54,1,A,17.345
37,33,17,1,A,5.115
37,34,19,1,A,6.244
37,35,91,2,B,6.498
37,36,89,1,A,5.944
37,37,59,2,B,5.729
37,38,47,1,A,7.389
37,39,38,2,B,7.447
37,40,18,2,B,5.156
37,41,57,2,B,10.331
37,42,27,2,B,4.473
37,43,25,2,B,5.035
37,44,86,2,B,9.826
37,45,39,2,B,4.462
37,46,60,1,A,6.496
37,47,85,1,A,6.444
37,48,24,2,B,9.266
37,49,77,2,B,3.771
37,50,28,2,B,5.21
37,51,41,2,B,3.507
37,52,50,2,B,3.72
37,53,1,2,B,9.008
37,54,40,2,B,3.301
37,55,64,2,B,5.954
37,56,7,1,A,5.273
37,57,35,1,A,5.369
37,58,67,2,B,2.332
37,59,46,1,A,0.996
37,60,84,1,A,0.529
37,61,5,2,B,0.668
37,62,58,2,B,0.302
37,63,61,2,B,0.893
37,64,13,1,A,0.582
37,65,44,1,A,0.84
37,66,12,2,B,1.003
37,67,14,2,B,0.407
37,68,8,2,B,0.446
37,69,90,1,A,3.78
37,70,6,1,A,0.726
37,71,70,2,B,0.602
37,72,3,2,B,0.856
37,73,72,2,B,0.419
37,74,76,1,A,3.618
37,75,15,1,A,4.798
37,76,29,2,B,3.53
37,77,48,2,B,1.568
37,78,68,2,B,0.367
37,79,32,1,A,0.383
37,80,31,1,A,0.359
37,81,74,1,A,0.351
37,82,2,2,B,0.366
37,83,51,1,A,0.424
37,84,66,1,A,0.331
37,85,87,2,B,0.437
37,86,34,2,B,0.371
37,87,79,1,A,0.462
37,88,73,1,A,0.764
37,89,42,2,B,0.457
37,90,49,2,B,0.402
37,91,26,1,A,0.586
38,1,24,2,B,10.7
38,2,35,1,A,10.972
38,3,25,2,B,5.165
38,4,29,2,B,10.616
38,5,49,2,B,5.795
38,6,7,2,B,5.579
38,7,90,1,A,5.421
38,8,17,1,A,23.366
38,9,91,2,B,24.362
38,10,86,1,A,5.435
38,11,72,1,A,6.12
38,12,33,2,B,10.742
38,13,65,1,A,9.329
38,14,5,1,A,30.014
38,15,61,1,A,9.578
38,16,62,1,A,36.333
38,17,16,1,A,28.589
38,18,50,2,B,6.1
38,19,6,2,B,11.733
38,20,12,1,A,3.376
38,21,23,2,B,3.863
38,22,51,2,B,4.678
38,23,42,1,A,4.212
38,24,28,2,B,15.916
38,25,44,1,A,5.762
38,26,75,2,B,3.157
38,27,43,2,B,7.32
38,28,47,1,A,3.978
38,29,81,2,B,10.512
38,30,52,1,A,7.679
38,31,11,2,B,38.133
38,32,26,2,B,9.227
38,33,31,1,A,16.201
38,34,78,1,A,17.091
38,35,14,1,A,10.526
38,36,48,1,A,3.915
38,37,45,2,B,3.713
38,38,57,2,B,3.246
38,39,69,1,A,5.057
38,40,70,1,A,3.914
38,41,15,2,B,6.346
38,42,27,2,B,8.5
38,43,18,2,B,5.565
38,44,1,1,A,6.827
38,45,84,1,A,3.926
38,46,73,2,B,5.301
38,47,87,2,B,12.226
38,48,66,2,B,18.95
38,49,88,2,B,3.268
38,50,22,2,B,7.769
38,51,19,1,A,2.015
38,52,32,2,B,10.672
38,53,9,1,A,2.934
38,54,13,1,A,2.643
38,55,38,2,B,4.659
38,56,76,2,B,5.612
38,57,46,1,A,8.555
38,58,2,2,B,5.335
38,59,36,1,A,5.765
38,60,40,1,A,8.6
38,61,56,2,B,4.476
38,62,41,2,B,6.138
38,63,4,2,B,20.123
38,64,53,1,A,3.6
38,65,82,2,B,11.685
38,66,85,2,B,3.96
38,67,80,2,B,3.711
38,68,60,2,B,3.264
38,69,34,2,B,4.626
38,70,79,2,B,2.825
38,71,30,1,A,3.2
38,72,58,2,B,5.037
38,73,71,2,B,4.094
38,74,63,1,A,3.289
38,75,89,1,A,2.6
38,76,3,1,A,1.776
38,77,20,2,B,4.889
38,78,39,2,B,2.13
38,79,67,2,B,32.725
38,80,10,1,A,3.21
38,81,54,1,A,8.8
38,82,37,1,A,2.576
38,83,59,1,A,10.116
38,84,64,2,B,8.024
38,85,21,1,A,2.979
38,86,8,2,B,2.483
38,87,83,2,B,1.85
38,88,55,1,A,2.955
38,89,77,1,A,5.765
38,90,68,1,A,3.119
38,91,74,2,B,4.509
39,1,25,2,B,35.698
39,2,51,2,B,10.277
39,3,10,2,B,9.843
39,4,8,2,B,22.101
39,5,58,2,B,22.502
39,6,22,2,B,38.417
39,7,68,2,B,5.345
39,8,12,1,A,18.745
39,9,84,2,B,9.637
39,10,3,1,A,4.423
39,11,57,1,A,12.377
39,12,71,2,B,20.039
39,13,60,1,A,12.76
39,14,45,2,B,17.86
39,15,81,2,B,8.766
39,16,24,1,A,12.168
39,17,9,2,B,34.442
39,18,37,1,A,4.402
39,19,62,1,A,8.047
39,20,74,2,B,28.527
39,21,42,1,A,12.077
39,22,20,1,A,7.329
39,23,63,2,B,6.054
39,24,53,2,B,9.693
39,25,21,1,A,10.902
39,26,87,1,A,33.999
39,27,29,1,A,6.457
39,28,73,1,A,16.101
39,29,35,2,B,11.003
39,30,64,2,B,62.828
39,31,34,1,A,8.4
39,32,5,1,A,4.087
39,33,86,2,B,2.429
39,34,78,1,A,5.629
39,35,72,1,A,40.189
39,36,30,2,B,13.366
39,37,6,2,B,13.18
39,38,31,1,A,5.902
39,39,90,1,A,10.066
39,40,47,2,B,14.991
39,41,49,2,B,14.573
39,42,26,2,B,6.557
39,43,61,2,B,19.737
39,44,52,1,A,7.968
39,45,4,1,A,10.201
39,46,27,2,B,7.44
39,47,46,2,B,9.1
39,48,54,2,B,22.498
39,49,80,1,A,16.019
39,50,18,2,B,41.303
39,51,43,1,A,15.23
39,52,40,1,A,22.304
39,53,32,1,A,16.28
39,54,79,2,B,5.628
39,55,7,2,B,10.254
39,56,83,1,A,6.502
39,57,56,1,A,9.735
39,58,15,2,B,7.627
39,59,11,1,A,26.99
39,60,28,1,A,24.736
39,61,75,2,B,24.699
39,62,14,1,A,35.989
39,63,50,2,B,10.169
39,64,19,1,A,26.832
39,65,39,1,A,3.86
39,66,55,1,A,14.438
39,67,36,1,A,22.266
39,68,38,1,A,54.266
39,69,88,1,A,18.748
39,70,70,1,A,35.472
39,71,91,2,B,28.886
39,72,48,1,A,92.235
39,73,16,2,B,41.437
39,74,1,1,A,10.279
39,75,33,2,B,21.379
39,76,66,1,A,18.767
39,77,67,1,A,14.898
39,78,85,1,A,13.604
39,79,23,2,B,41.857
39,80,59,2,B,28.234
39,81,89,2,B,6.39
39,82,44,2,B,15.662
39,83,17,1,A,12.591
39,84,82,2,B,11.573
39,85,69,2,B,8.755
39,86,65,1,A,12.544
39,87,2,1,A,15.982
39,88,77,2,B,7.877
39,89,41,2,B,41.672
39,90,76,2,B,21.717
39,91,13,2,B,8.737
40,1,78,2,B,6.072
40,2,42,1,A,11.207
40,3,54,1,A,8.981
40,4,28,2,B,10.477
40,5,46,2,B,10.49
40,6,76,2,B,6.89
40,7,62,2,B,7.743
40,8,59,2,B,7.076
40,9,85,1,A,7.924
40,10,60,1,A,4.5
40,11,77,1,A,7.149
40,12,49,2,B,12.641
40,13,80,2,B,4.053
40,14,20,1,A,6.582
40,15,66,2,B,9.55
40,16,7,2,B,8.833
40,17,44,2,B,12.464
40,18,81,1,A,4.29
40,19,37,2,B,6.184
40,20,43,2,B,6.475
40,21,65,1,A,8.525
40,22,3,2,B,6.114
40,23,90,2,B,6.087
40,24,4,1,A,5.942
40,25,58,1,A,5.699
40,26,27,2,B,4.644
40,27,70,1,A,4.122
40,28,26,1,A,10.381
40,29,19,1,A,7.168
40,30,84,2,B,5.849
40,31,50,2,B,5.502
40,32,86,2,B,5.916
40,33,13,1,A,8.279
40,34,51,1,A,5.549
40,35,72,2,B,8.743
40,36,39,2,B,10.77
40,37,14,1,A,8.29
40,38,22,1,A,8.601
40,39,82,2,B,4.354
40,40,15,2,B,5.895
40,41,41,2,B,20.011
40,42,71,2,B,10.8
40,43,56,1,A,6.795
40,44,25,2,B,4.169
40,45,83,2,B,0.002
40,46,36,1,A,10.219
40,47,40,1,A,7.635
40,48,38,2,B,4.769
40,49,91,2,B,5.79
40,50,87,1,A,5.894
40,51,16,2,B,5.879
40,52,2,1,A,8.935
40,53,24,2,B,5.137
40,54,21,1,A,4.554
40,55,31,1,A,4.429
40,56,89,2,B,5.898
40,57,45,2,B,5.674
40,58,75,1,A,6.38
40,59,5,1,A,6.101
40,60,73,2,B,5.317
40,61,35,1,A,8.001
40,62,32,2,B,5.877
40,63,47,2,B,7.84
40,64,23,2,B,5.757
40,65,11,1,A,6.596
40,66,53,2,B,5.819
40,67,33,1,A,13.831
40,68,74,2,B,4.9
40,69,55,2,B,5.7
40,70,68,2,B,5.963
40,71,34,2,B,9.582
40,72,6,2,B,7.417
40,73,69,2,B,7.279
40,74,10,1,A,5.833
40,75,79,1,A,5.07
40,76,57,2,B,4.882
40,77,48,2,B,4.898
40,78,61,1,A,4.919
40,79,52,1,A,7.065
40,80,9,2,B,5.201
40,81,30,1,A,7.664
40,82,67,1,A,6.755
40,83,63,2,B,6.679
40,84,29,2,B,4.897
40,85,12,1,A,6.887
40,86,17,1,A,5.995
40,87,8,2,B,8
40,88,18,2,B,9.368
40,89,1,2,B,6.1
40,90,64,2,B,4.48
40,91,88,1,A,7.674
41,1,63,1,A,14.037
41,2,67,1,A,10.624
41,3,38,1,A,21.437
41,4,65,1,A,3.594
41,5,64,2,B,9.232
41,6,87,2,B,14.087
41,7,23,2,B,18.336
41,8,36,1,A,10.161
41,9,46,1,A,17.459
41,10,35,2,B,10.483
41,11,61,2,B,10.382
41,12,10,1,A,16.234
41,13,47,1,A,3.213
41,14,5,1,A,13.832
41,15,13,1,A,12.757
41,16,73,2,B,7.011
41,17,3,1,A,8.187
41,18,49,2,B,7.11
41,19,86,1,A,7.866
41,20,2,2,B,7.217
41,21,32,1,A,7.102
41,22,41,2,B,5.408
41,23,12,2,B,4.752
41,24,27,2,B,11.4
41,25,54,2,B,7.189
41,26,68,2,B,4.14
41,27,1,2,B,8.862
41,28,22,1,A,3.254
41,29,33,2,B,9.692
41,30,37,1,A,6.288
41,31,39,2,B,6.259
41,32,42,2,B,5.445
41,33,53,1,A,3.716
41,34,84,1,A,6.045
41,35,77,2,B,10.081
41,36,75,2,B,11.059
41,37,81,2,B,42.701
41,38,30,1,A,10.217
41,39,19,2,B,5.575
41,40,21,1,A,7.578
41,41,70,2,B,6.343
41,42,62,2,B,7.164
41,43,29,2,B,6.699
41,44,88,1,A,7.8
41,45,28,1,A,9.9
41,46,85,1,A,7.507
41,47,45,1,A,9.5
41,48,6,2,B,1.169
41,49,79,2,B,1.669
41,50,89,2,B,2.763
41,51,16,1,A,0.662
41,52,25,2,B,2.655
41,53,72,2,B,2.387
41,54,57,1,A,1.762
41,55,52,2,B,3.63
41,56,58,2,B,3.134
41,57,69,2,B,5.4
41,58,11,1,A,6.675
41,59,40,1,A,5.194
41,60,83,1,A,6.957
41,61,90,2,B,2.742
41,62,78,1,A,1.835
41,63,17,1,A,4.267
41,64,31,1,A,3.873
41,65,60,2,B,4.954
41,66,56,2,B,7.057
41,67,71,2,B,5.471
41,68,26,2,B,6.658
41,69,34,2,B,5.29
41,70,59,2,B,8.112
41,71,48,1,A,8.1
41,72,76,1,A,1.25
41,73,43,2,B,5.244
41,74,18,2,B,7.474
41,75,51,2,B,8.48
41,76,50,1,A,7.938
41,77,80,1,A,1.433
41,78,91,2,B,6.337
41,79,4,2,B,12.227
41,80,55,2,B,5.677
41,81,24,2,B,6.389
41,82,20,1,A,5.216
41,83,9,1,A,4.065
41,84,66,1,A,4.631
41,85,44,2,B,6.183
41,86,7,1,A,4.789
41,87,74,2,B,2.752
41,88,82,2,B,3.033
41,89,14,1,A,4.501
41,90,15,2,B,5.273
41,91,8,2,B,3.649
42,1,4,1,A,7.6
42,2,1,2,B,8.491
42,3,81,2,B,9.755
42,4,55,1,A,8.943
42,5,56,1,A,11.052
42,6,37,2,B,21.285
42,7,7,2,B,8.204
42,8,23,2,B,9.642
42,9,66,1,A,47.643
42,10,30,2,B,15.234
42,11,32,1,A,16.384
42,12,27,2,B,15.372
42,13,67,2,B,5.569
42,14,57,2,B,10.17
42,15,88,2,B,6.706
42,16,85,1,A,11.139
42,17,26,2,B,21.66
42,18,78,1,A,6.902
42,19,28,2,B,26.976
42,20,49,2,B,10.796
42,21,13,2,B,18.274
42,22,33,2,B,10.075
42,23,42,1,A,8.724
42,24,35,1,A,11.134
42,25,79,2,B,10.765
42,26,6,2,B,18.685
42,27,47,1,A,12.193
42,28,36,2,B,17.234
42,29,71,2,B,31.105
42,30,90,1,A,22.661
42,31,24,1,A,5.103
42,32,8,2,B,8.03
42,33,17,1,A,42.403
42,34,51,2,B,11.9
42,35,91,2,B,7.664
42,36,40,2,B,31.005
42,37,73,2,B,29.442
42,38,31,1,A,21.8
42,39,38,2,B,30.855
42,40,86,1,A,12.998
42,41,12,2,B,8.835
42,42,58,1,A,16.768
42,43,75,2,B,8.626
42,44,14,1,A,18.74
42,45,60,1,A,35.958
42,46,16,2,B,16.861
42,47,39,2,B,10.123
42,48,74,2,B,7.559
42,49,44,1,A,33.47
42,50,20,1,A,6.044
42,51,65,1,A,7.132
42,52,45,1,A,40.472
42,53,77,1,A,5.759
42,54,43,1,A,9.891
42,55,25,2,B,43.883
42,56,41,2,B,6.88
42,57,62,1,A,6.596
42,58,29,1,A,7.829
42,59,87,1,A,8.085
42,60,9,2,B,6.544
42,61,11,1,A,33.141
42,62,21,1,A,14.644
42,63,18,2,B,8.54
42,64,89,1,A,6.17
42,65,84,2,B,7.064
42,66,5,1,A,6.492
42,67,82,2,B,7.518
42,68,61,2,B,9.776
42,69,48,1,A,9.502
42,70,54,2,B,43.235
42,71,59,2,B,11.47
42,72,50,1,A,23.391
42,73,64,2,B,10.821
42,74,72,1,A,9.855
42,75,52,1,A,7.506
42,76,53,2,B,10.824
42,77,80,1,A,4.575
42,78,22,2,B,21.635
42,79,70,1,A,12.545
42,80,83,1,A,11.439
42,81,19,1,A,6.883
42,82,69,2,B,5.133
42,83,34,1,A,5.199
42,84,63,2,B,12.345
42,85,15,2,B,5.054
42,86,68,2,B,6.326
42,87,2,2,B,9.022
42,88,76,1,A,14.883
42,89,10,1,A,8.484
42,90,3,1,A,3.36
42,91,46,2,B,9.586
44,1,91,2,B,16.772
44,2,40,1,A,12.361
44,3,81,1,A,6.207
44,4,28,2,B,4.405
44,5,48,2,B,3.122
44,6,17,2,B,2.248
44,7,32,2,B,4.251
44,8,79,1,A,3.536
44,9,26,2,B,3.291
44,10,87,2,B,1.341
44,11,37,2,B,2.301
44,12,73,1,A,2.613
44,13,50,2,B,0.644
44,14,47,2,B,0.831
44,15,90,2,B,1.269
44,16,10,1,A,5.695
44,17,49,1,A,2.213
44,18,27,1,A,4.269
44,19,84,2,B,4.625
44,20,25,2,B,3.667
44,21,66,2,B,3.196
44,22,43,2,B,5.009
44,23,57,2,B,7.012
44,24,61,2,B,2.503
44,25,39,1,A,4.709
44,26,30,2,B,1.883
44,27,88,2,B,2.196
44,28,16,2,B,2.353
44,29,55,1,A,2.867
44,30,76,2,B,2.761
44,31,45,2,B,4.139
44,32,74,2,B,2.581
44,33,75,2,B,2.878
44,34,22,2,B,2.533
44,35,69,1,A,2.732
44,36,86,1,A,4.401
44,37,53,1,A,3.395
44,38,63,1,A,6.255
44,39,35,1,A,2.268
44,40,46,2,B,3.076
44,41,20,1,A,3.89
44,42,68,1,A,4.095
44,43,31,1,A,5.827
44,44,85,1,A,3.208
44,45,19,1,A,1.871
44,46,38,1,A,0.546
44,47,65,2,B,0.067
44,48,70,1,A,0.001
44,49,33,1,A,0.096
44,50,83,1,A,0.499
44,51,14,2,B,0.39
44,52,7,1,A,0.647
44,53,82,2,B,0.791
44,54,24,2,B,4.756
44,55,29,2,B,0.788
44,56,8,1,A,0.632
44,57,3,2,B,0.246
44,58,56,2,B,0.795
44,59,5,1,A,0.688
44,60,2,2,B,3.278
44,61,6,2,B,2.364
44,62,78,2,B,2.234
44,63,51,1,A,5.434
44,64,60,2,B,1.686
44,65,67,2,B,1.405
44,66,89,2,B,2.275
44,67,77,1,A,2.398
44,68,54,1,A,3.16
44,69,71,1,A,1.896
44,70,34,2,B,4.595
44,71,4,2,B,1.545
44,72,72,1,A,5.154
44,73,42,1,A,4.033
44,74,64,2,B,6.057
44,75,12,1,A,7.216
44,76,52,1,A,1.878
44,77,80,2,B,1.787
44,78,15,1,A,0.845
44,79,21,2,B,0.586
44,80,11,1,A,1.18
44,81,44,1,A,0.662
44,82,9,2,B,0.411
44,83,1,1,A,0.875
44,84,36,1,A,0.8
44,85,41,1,A,1.259
44,86,58,1,A,2.223
44,87,13,1,A,1.188
44,88,23,2,B,1.568
44,89,62,1,A,2.204
44,90,59,1,A,1.093
44,91,18,1,A,2.455
45,1,61,2,B,16.448
45,2,5,1,A,12.552
45,3,37,2,B,28.403
45,4,32,1,A,9.355
45,5,14,1,A,15.468
45,6,52,1,A,11.334
45,7,45,1,A,22.114
45,8,78,2,B,10.956
45,9,80,2,B,4.97
45,10,42,2,B,9.202
45,11,13,1,A,12.95
45,12,23,2,B,5.73
45,13,21,1,A,12.006
45,14,53,1,A,9.862
45,15,22,2,B,9.316
45,16,47,2,B,13.281
45,17,11,1,A,10.202
45,18,27,2,B,7.9
45,19,67,1,A,10.556
45,20,26,2,B,14.311
45,21,70,2,B,10.306
45,22,59,2,B,23.506
45,23,43,2,B,10.503
45,24,18,1,A,7.047
45,25,90,1,A,14.743
45,26,44,2,B,6.342
45,27,71,2,B,9.087
45,28,75,2,B,10.001
45,29,3,2,B,14.241
45,30,28,1,A,19.657
45,31,36,1,A,9.245
45,32,19,1,A,4.9
45,33,16,2,B,10.151
45,34,6,2,B,10.37
45,35,2,1,A,7.998
45,36,54,1,A,7.682
45,37,55,1,A,9.585
45,38,66,2,B,7.161
45,39,56,1,A,20.306
45,40,39,2,B,22.783
45,41,41,2,B,4.851
45,42,65,1,A,6.26
45,43,48,2,B,19.942
45,44,31,1,A,7.647
45,45,17,1,A,8.007
45,46,7,2,B,8.346
45,47,34,1,A,4.104
45,48,10,1,A,7.856
45,49,15,2,B,4.873
45,50,68,2,B,3.366
45,51,60,1,A,8.137
45,52,58,2,B,4.743
45,53,87,1,A,11.51
45,54,8,2,B,9.402
45,55,82,2,B,19.188
45,56,86,2,B,10.033
45,57,33,1,A,10.158
45,58,51,2,B,10.909
45,59,64,1,A,8.11
45,60,88,2,B,9.538
45,61,62,1,A,7.314
45,62,69,2,B,4.488
45,63,50,1,A,6.912
45,64,12,1,A,3.609
45,65,81,1,A,5.2
45,66,49,2,B,8.078
45,67,30,2,B,14.75
45,68,29,1,A,6.313
45,69,40,2,B,6.757
45,70,83,1,A,8.141
45,71,57,1,A,6.383
45,72,46,2,B,13.665
45,73,1,2,B,9.503
45,74,85,1,A,4.492
45,75,24,2,B,4.707
45,76,38,2,B,8.26
45,77,20,1,A,11.877
45,78,84,2,B,6.2
45,79,73,2,B,7.958
45,80,63,2,B,6.687
45,81,4,1,A,8.578
45,82,91,2,B,7.848
45,83,74,1,A,8.869
45,84,25,1,A,9.271
45,85,77,1,A,8.511
45,86,9,1,A,4.255
45,87,72,2,B,9.355
45,88,89,2,B,5.411
45,89,79,1,A,4.977
45,90,76,2,B,3.741
45,91,35,2,B,8.659
46,1,21,1,A,21.102
46,2,33,1,A,10.216
46,3,67,1,A,10.7
46,4,16,2,B,17.5
46,5,7,2,B,10.332
46,6,23,2,B,7.553
46,7,40,1,A,14.69
46,8,75,1,A,9.489
46,9,13,2,B,10.473
46,10,87,2,B,11.992
46,11,82,2,B,8.049
46,12,72,1,A,13.455
46,13,36,1,A,15.097
46,14,4,1,A,13.848
46,15,69,2,B,11.924
46,16,48,2,B,149.843
46,17,27,2,B,7.401
46,18,60,1,A,19.576
46,19,29,2,B,6.007
46,20,35,1,A,9.752
46,21,6,2,B,7.058
46,22,58,2,B,5.089
46,23,43,2,B,4.762
46,24,79,1,A,5.966
46,25,59,1,A,7.367
46,26,88,2,B,6.472
46,27,46,1,A,15.293
46,28,5,2,B,9.716
46,29,24,2,B,7.007
46,30,80,2,B,10.466
46,31,56,2,B,10.341
46,32,47,1,A,9.084
46,33,70,1,A,16.459
46,34,22,2,B,7.617
46,35,61,2,B,8.588
46,36,34,1,A,13.19
46,37,11,1,A,8.763
46,38,91,2,B,8.992
46,39,28,1,A,10.042
46,40,77,1,A,8.935
46,41,19,1,A,8.113
46,42,74,2,B,6.715
46,43,68,2,B,7.19
46,44,71,2,B,6.579
46,45,84,2,B,8.137
46,46,12,2,B,11.479
46,47,86,1,A,17.703
46,48,63,1,A,13.324
46,49,3,2,B,7.609
46,50,51,1,A,89.186
46,51,89,1,A,18.458
46,52,26,1,A,71.313
46,53,55,1,A,11.306
46,54,18,2,B,16.69
46,55,90,1,A,6.149
46,56,54,2,B,21.185
46,57,45,2,B,13.306
46,58,38,2,B,4.365
46,59,64,2,B,13.366
46,60,2,2,B,6.245
46,61,44,2,B,6.27
46,62,37,1,A,26.543
46,63,78,2,B,11.741
46,64,52,1,A,8.997
46,65,73,2,B,7.491
46,66,62,2,B,9.869
46,67,15,2,B,9.531
46,68,76,2,B,7.419
46,69,83,1,A,12.865
46,70,49,2,B,10.146
46,71,25,2,B,11.329
46,72,53,2,B,6.878
46,73,8,2,B,6.112
46,74,10,1,A,9.582
46,75,14,1,A,10.91
46,76,66,2,B,5.793
46,77,39,2,B,23.786
46,78,42,1,A,12.944
46,79,30,1,A,6.999
46,80,65,1,A,10.019
46,81,9,2,B,13.58
46,82,81,2,B,11.684
46,83,32,2,B,6.128
46,84,85,1,A,10.487
46,85,57,2,B,16.523
46,86,1,1,A,13.155
46,87,17,1,A,12.267
46,88,50,2,B,3.443
46,89,31,1,A,4.247
46,90,41,2,B,3.414
46,91,20,1,A,14.793
48,1,66,1,A,26.277
48,2,82,2,B,10.3
48,3,72,1,A,10.684
48,4,84,2,B,7.371
48,5,46,2,B,18.692
48,6,42,1,A,14.555
48,7,17,1,A,6.064
48,8,85,1,A,5.923
48,9,83,1,A,12.915
48,10,75,2,B,7.379
48,11,38,2,B,8.236
48,12,34,1,A,8.768
48,13,6,1,A,5.888
48,14,7,2,B,17.077
48,15,43,1,A,23.186
48,16,37,2,B,49.239
48,17,45,2,B,7.56
48,18,1,2,B,15.352
48,19,48,1,A,8.01
48,20,53,2,B,32.929
48,21,29,2,B,49.934
48,22,41,2,B,7.101
48,23,87,1,A,4.156
48,24,32,1,A,6.322
48,25,3,2,B,38.697
48,26,40,1,A,3.841
48,27,36,1,A,10.586
48,28,5,1,A,8.774
48,29,47,1,A,5.171
48,30,21,1,A,24.601
48,31,73,2,B,7.89
48,32,24,2,B,27.069
48,33,27,2,B,8.119
48,34,25,2,B,5.89
48,35,30,2,B,7.355
48,36,12,2,B,8.971
48,37,70,1,A,16.502
48,38,59,2,B,72.073
48,39,71,2,B,14.301
48,40,69,2,B,4.248
48,41,44,2,B,6.313
48,42,74,2,B,46.641
48,43,80,2,B,8.391
48,44,18,1,A,10.922
48,45,28,1,A,6.537
48,46,55,1,A,7.543
48,47,13,1,A,23.253
48,48,35,1,A,19.985
48,49,56,2,B,12.987
48,50,68,2,B,15.798
48,51,63,1,A,9.176
48,52,64,2,B,7.971
48,53,54,2,B,35.48
48,54,65,2,B,8.411
48,55,76,2,B,2.955
48,56,78,2,B,3.647
48,57,8,2,B,6.971
48,58,9,1,A,24.027
48,59,81,1,A,11.914
48,60,58,2,B,32.534
48,61,90,2,B,5.816
48,62,15,1,A,6.063
48,63,62,2,B,9.164
48,64,77,1,A,21.169
48,65,2,1,A,21.018
48,66,67,1,A,4.844
48,67,52,1,A,16.839
48,68,79,1,A,6.43
48,69,61,1,A,5.314
48,70,57,2,B,11.065
48,71,11,1,A,30.19
48,72,26,2,B,8.23
48,73,22,2,B,21.379
48,74,60,2,B,20.049
48,75,88,2,B,22.346
48,76,91,2,B,5.897
48,77,49,2,B,12.052
48,78,16,1,A,10.849
48,79,14,1,A,12.17
48,80,10,1,A,8.943
48,81,23,2,B,5.555
48,82,4,1,A,5.196
48,83,50,1,A,8.357
48,84,39,2,B,4.132
48,85,86,2,B,7.77
48,86,89,1,A,4.702
48,87,51,2,B,6.364
48,88,20,1,A,7.789
48,89,19,1,A,4.714
48,90,33,2,B,7.501
48,91,31,1,A,4.833
49,1,19,1,A,10.189
49,2,63,1,A,5.268
49,3,25,2,B,10.101
49,4,28,1,A,8.474
49,5,48,1,A,6.606
49,6,62,2,B,4.839
49,7,4,1,A,6.995
49,8,42,1,A,6.433
49,9,57,2,B,8.906
49,10,54,1,A,6.457
49,11,30,1,A,9.551
49,12,88,1,A,9.227
49,13,75,1,A,5.891
49,14,49,2,B,5.27
49,15,68,1,A,9.301
49,16,78,1,A,4.864
49,17,27,2,B,4.943
49,18,83,1,A,4.117
49,19,16,1,A,5.287
49,20,9,2,B,3.747
49,21,61,1,A,5.366
49,22,69,1,A,4.473
49,23,26,1,A,9.072
49,24,67,1,A,5.984
49,25,74,2,B,4.964
49,26,80,1,A,6.132
49,27,35,1,A,3.614
49,28,2,1,A,6.988
49,29,89,2,B,2.757
49,30,1,2,B,5.037
49,31,41,2,B,3.105
49,32,22,2,B,3.936
49,33,32,2,B,6.295
49,34,56,1,A,3.527
49,35,15,2,B,5.939
49,36,82,2,B,2.702
49,37,5,1,A,3.395
49,38,3,2,B,2.715
49,39,36,1,A,5.913
49,40,12,2,B,2.804
49,41,14,1,A,2.879
49,42,13,2,B,4.294
49,43,50,2,B,2.802
49,44,81,2,B,3.358
49,45,71,2,B,3.432
49,46,44,2,B,4.599
49,47,73,2,B,5.335
49,48,37,2,B,5.074
49,49,76,1,A,2.664
49,50,31,1,A,6.055
49,51,8,2,B,4.787
49,52,46,2,B,4.969
49,53,58,2,B,5.502
49,54,91,2,B,7.983
49,55,85,1,A,5.998
49,56,47,2,B,4.334
49,57,24,2,B,4.319
49,58,52,2,B,8.953
49,59,7,1,A,6.031
49,60,20,1,A,7.482
49,61,43,2,B,4.635
49,62,11,1,A,7.369
49,63,84,2,B,4.7
49,64,23,2,B,3.864
49,65,60,1,A,5.348
49,66,40,1,A,5.826
49,67,79,2,B,3.872
49,68,65,1,A,11.952
49,69,70,1,A,4.173
49,70,59,1,A,7.141
49,71,77,1,A,5.469
49,72,72,1,A,7.783
49,73,51,2,B,4.577
49,74,34,2,B,4.588
49,75,38,2,B,5.842
49,76,39,2,B,3.699
49,77,18,2,B,5.984
49,78,6,2,B,2.618
49,79,29,1,A,4.679
49,80,17,1,A,11.352
49,81,45,2,B,3.4
49,82,87,1,A,3.695
49,83,64,2,B,8.096
49,84,66,1,A,5.66
49,85,33,2,B,7.851
49,86,10,1,A,2.404
49,87,21,1,A,2.886
49,88,86,2,B,3.255
49,89,55,2,B,6.611
49,90,90,2,B,3.923
49,91,53,1,A,7.512
50,1,25,2,B,20.338
50,2,21,2,B,22.677
50,3,73,1,A,10.945
50,4,20,1,A,14.029
50,5,38,2,B,11.803
50,6,66,1,A,12.601
50,7,59,2,B,11.101
50,8,72,2,B,8.842
50,9,29,2,B,8.226
50,10,68,2,B,7.058
50,11,2,1,A,15.842
50,12,42,1,A,9.618
50,13,67,1,A,9.699
50,14,56,2,B,6.152
50,15,5,1,A,9.556
50,16,36,2,B,8.368
50,17,33,2,B,18.74
50,18,13,1,A,8.1
50,19,48,2,B,11
50,20,81,2,B,7.6
50,21,23,2,B,30.348
50,22,84,2,B,14.8
50,23,31,1,A,5.7
50,24,14,1,A,8.151
50,25,70,1,A,8.197
50,26,86,1,A,32.143
50,27,15,2,B,12.247
50,28,4,1,A,8.938
50,29,43,2,B,11.781
50,30,49,2,B,10.398
50,31,3,1,A,5.247
50,32,82,2,B,25.046
50,33,78,1,A,0.171
50,34,10,1,A,8.297
50,35,63,1,A,4.792
50,36,89,1,A,5.841
50,37,46,1,A,9.314
50,38,45,2,B,24.872
50,39,87,2,B,13.261
50,40,34,1,A,6.573
50,41,12,1,A,11.246
50,42,6,2,B,14.091
50,43,90,1,A,3.251
50,44,79,2,B,3.346
50,45,27,2,B,10.472
50,46,54,1,A,3.668
50,47,18,1,A,6.202
50,48,41,2,B,7.3
50,49,11,1,A,8.092
50,50,85,1,A,8.497
50,51,40,1,A,13.6
50,52,75,1,A,4.837
50,53,7,1,A,5.684
50,54,1,2,B,7.974
50,55,91,2,B,6.598
50,56,77,2,B,7.359
50,57,74,1,A,12.836
50,58,51,2,B,9.113
50,59,80,1,A,4.687
50,60,62,2,B,4.6
50,61,44,2,B,8.052
50,62,69,1,A,19.127
50,63,16,2,B,9.458
50,64,8,2,B,9.343
50,65,83,1,A,6.696
50,66,71,2,B,6.502
50,67,24,2,B,8.9
50,68,17,1,A,13.637
50,69,88,2,B,4.179
50,70,19,1,A,14.987
50,71,53,1,A,14.69
50,72,52,1,A,12.965
50,73,60,2,B,7.401
50,74,65,1,A,29.14
50,75,30,2,B,5.8
50,76,64,1,A,4.878
50,77,76,1,A,4.036
50,78,28,1,A,17.72
50,79,47,1,A,7.924
50,80,37,2,B,17.801
50,81,58,2,B,11.85
50,82,9,1,A,8.846
50,83,55,1,A,10.864
50,84,61,2,B,4.275
50,85,32,2,B,9.242
50,86,39,1,A,1.634
50,87,26,2,B,11.994
50,88,57,1,A,6.388
50,89,50,1,A,5.127
50,90,35,1,A,6.951
50,91,22,2,B,1.831
51,1,30,2,B,16.101
51,2,18,1,A,7.449
51,3,37,2,B,7.967
51,4,77,2,B,8.659
51,5,57,2,B,7.999
51,6,76,1,A,21.768
51,7,48,2,B,5.395
51,8,33,2,B,8.176
51,9,74,2,B,35.864
51,10,13,2,B,10
51,11,28,1,A,11.102
51,12,50,1,A,7.002
51,13,14,1,A,8.78
51,14,44,1,A,25.103
51,15,83,1,A,15.29
51,16,5,2,B,4.928
51,17,54,2,B,10.819
51,18,69,1,A,15.108
51,19,53,1,A,7.353
51,20,70,1,A,7.443
51,21,46,1,A,15.784
51,22,71,2,B,9.175
51,23,61,2,B,24.004
51,24,89,1,A,39.778
51,25,49,2,B,14.055
51,26,34,2,B,18.093
51,27,52,2,B,2.483
51,28,90,1,A,20.576
51,29,78,1,A,3.781
51,30,45,2,B,12.679
51,31,9,2,B,8.542
51,32,85,1,A,17.051
51,33,29,1,A,16.128
51,34,8,2,B,10.007
51,35,32,1,A,5.128
51,36,16,2,B,6.299
51,37,72,1,A,9.346
51,38,75,2,B,8.709
51,39,39,2,B,12.107
51,40,51,2,B,37.91
51,41,15,2,B,3.842
51,42,24,2,B,5.526
51,43,3,1,A,5.486
51,44,79,2,B,5.802
51,45,55,2,B,12.355
51,46,21,1,A,4.373
51,47,20,1,A,6.147
51,48,40,1,A,4.177
51,49,6,1,A,9.215
51,50,86,2,B,44.198
51,51,81,2,B,4.852
51,52,12,1,A,8.549
51,53,60,2,B,12.555
51,54,41,2,B,5.957
51,55,91,2,B,7.421
51,56,63,1,A,7.256
51,57,47,1,A,7.898
51,58,17,1,A,5.201
51,59,35,1,A,6.431
51,60,73,2,B,15.474
51,61,82,2,B,5.428
51,62,27,2,B,11.319
51,63,2,2,B,4.897
51,64,80,1,A,3.785
51,65,7,2,B,16.101
51,66,84,2,B,6.962
51,67,36,1,A,8.247
51,68,43,1,A,12.002
51,69,11,2,B,5.342
51,70,65,1,A,5.799
51,71,25,2,B,5.494
51,72,56,2,B,12.267
51,73,38,2,B,7.969
51,74,10,2,B,14.826
51,75,31,1,A,3.568
51,76,19,1,A,6.277
51,77,4,1,A,4.15
51,78,58,2,B,3.803
51,79,67,1,A,4.069
51,80,59,2,B,34.534
51,81,26,2,B,5.399
51,82,23,2,B,3.585
51,83,1,1,A,26.056
51,84,62,1,A,6.02
51,85,22,2,B,6.051
51,86,42,1,A,33.299
51,87,68,2,B,6.976
51,88,87,1,A,28.282
51,89,66,1,A,15.639
51,90,88,2,B,3.817
51,91,64,1,A,8.632
52,1,88,2,B,81.826
52,2,32,1,A,34.816
52,3,72,1,A,18.722
52,4,39,2,B,27.346
52,5,74,2,B,19.879
52,6,64,2,B,19.739
52,7,30,2,B,18.527
52,8,53,2,B,18.687
52,9,55,1,A,16.477
52,10,62,1,A,15.945
52,11,24,1,A,18.156
52,12,46,2,B,20.445
52,13,59,2,B,16.133
52,14,2,2,B,17.186
52,15,42,1,A,21.261
52,16,4,1,A,16.483
52,17,65,1,A,19.479
52,18,75,1,A,18.728
52,19,68,2,B,16.175
52,20,38,2,B,17.215
52,21,12,1,A,16.389
52,22,76,2,B,22.494
52,23,14,1,A,16.328
52,24,57,1,A,24.863
52,25,56,1,A,20.224
52,26,20,1,A,20.364
52,27,63,1,A,27.411
52,28,58,1,A,19.544
52,29,11,1,A,14.658
52,30,25,2,B,16.599
52,31,89,1,A,13.937
52,32,84,2,B,14.613
52,33,31,1,A,22.824
52,34,51,1,A,14.785
52,35,22,2,B,14.668
52,36,43,1,A,16.868
52,37,10,1,A,13.249
52,38,87,2,B,12.812
52,39,66,2,B,16.626
52,40,91,2,B,25.302
52,41,67,1,A,16.625
52,42,60,2,B,16.311
52,43,73,2,B,20.522
52,44,33,2,B,21.431
52,45,35,1,A,15.484
52,46,37,2,B,18.401
52,47,1,2,B,20.039
52,48,27,2,B,18.147
52,49,6,2,B,14.841
52,50,49,2,B,19.457
52,51,26,1,A,15.944
52,52,5,2,B,15.242
52,53,3,1,A,16.644
52,54,48,1,A,19.753
52,55,21,1,A,13.394
52,56,23,2,B,14.696
52,57,47,1,A,31.321
52,58,36,2,B,16.572
52,59,78,2,B,18.674
52,60,45,2,B,18.504
52,61,82,2,B,12.45
52,62,79,1,A,13.557
52,63,83,1,A,11.81
52,64,7,2,B,14.893
52,65,28,1,A,15.177
52,66,18,2,B,17.095
52,67,8,2,B,15.86
52,68,77,1,A,11.111
52,69,81,2,B,10.231
52,70,17,1,A,13.275
52,71,90,1,A,13.649
52,72,69,1,A,14.687
52,73,16,1,A,15.67
52,74,54,2,B,14.368
52,75,34,1,A,31.792
52,76,61,2,B,16.263
52,77,70,2,B,14.402
52,78,29,1,A,15.4
52,79,9,1,A,14.892
52,80,41,2,B,17.158
52,81,86,1,A,10.724
52,82,15,2,B,20.342
52,83,40,2,B,16.349
52,84,13,2,B,14.969
52,85,85,1,A,10.528
52,86,71,2,B,15.146
52,87,52,1,A,17.035
52,88,44,2,B,19.884
52,89,50,1,A,15.817
52,90,80,1,A,23.28
52,91,19,1,A,15.985
54,1,10,1,A,10.114
54,2,82,2,B,3.3
54,3,89,2,B,2.668
54,4,11,1,A,4.901
54,5,34,2,B,1.512
54,6,39,2,B,5.141
54,7,7,2,B,9.572
54,8,60,1,A,6.427
54,9,17,1,A,5.411
54,10,56,2,B,8.689
54,11,74,2,B,4.275
54,12,27,2,B,6.989
54,13,68,2,B,4.768
54,14,44,1,A,19.569
54,15,26,2,B,29.429
54,16,20,1,A,10.393
54,17,57,1,A,5.197
54,18,5,1,A,44.49
54,19,65,1,A,9.863
54,20,43,1,A,9.66
54,21,91,2,B,6.34
54,22,25,2,B,10.2
54,23,77,1,A,7.408
54,24,53,1,A,8.044
54,25,33,2,B,8.782
54,26,37,2,B,6.756
54,27,45,2,B,6.378
54,28,46,1,A,6.503
54,29,54,2,B,8.213
54,30,36,2,B,8.681
54,31,23,2,B,4.286
54,32,38,1,A,6.956
54,33,49,2,B,5.019
54,34,84,2,B,5.091
54,35,72,1,A,4.604
54,36,66,1,A,7.956
54,37,79,2,B,3.491
54,38,48,1,A,8.685
54,39,19,1,A,3.284
54,40,8,2,B,3.973
54,41,18,1,A,8.445
54,42,80,1,A,4.263
54,43,9,1,A,5.401
54,44,86,2,B,5.001
54,45,69,2,B,4.197
54,46,81,2,B,2.909
54,47,29,2,B,8.898
54,48,42,1,A,7.3
54,49,83,1,A,5.641
54,50,6,2,B,14.29
54,51,2,2,B,5.059
54,52,31,1,A,4.755
54,53,67,2,B,3.127
54,54,12,2,B,5.339
54,55,88,1,A,2.72
54,56,75,1,A,4.853
54,57,30,1,A,4.003
54,58,58,2,B,5.051
54,59,47,1,A,4.489
54,60,63,2,B,7.415
54,61,32,2,B,7.869
54,62,55,2,B,4.399
54,63,87,1,A,2.599
54,64,14,1,A,1.973
54,65,52,1,A,7.81
54,66,21,1,A,5.511
54,67,73,2,B,2.891
54,68,61,2,B,9.777
54,69,90,2,B,5.072
54,70,76,1,A,4.444
54,71,59,2,B,6.493
54,72,3,2,B,4.993
54,73,4,1,A,4.154
54,74,70,2,B,5.49
54,75,16,1,A,9.249
54,76,15,2,B,5.33
54,77,64,1,A,4.047
54,78,85,1,A,2.842
54,79,62,2,B,5.409
54,80,28,1,A,4.783
54,81,78,1,A,3.566
54,82,41,2,B,7.127
54,83,51,2,B,4.509
54,84,22,2,B,4.823
54,85,50,2,B,7.558
54,86,13,2,B,5.891
54,87,24,2,B,2.356
54,88,40,1,A,3.312
54,89,71,2,B,12.548
54,90,35,1,A,7.019
54,91,1,2,B,3.206
55,1,90,2,B,20.551
55,2,86,2,B,6.722
55,3,35,2,B,29.23
55,4,31,1,A,14.324
55,5,41,2,B,10.438
55,6,6,2,B,4.232
55,7,79,1,A,9.422
55,8,25,1,A,6.923
55,9,13,1,A,5.773
55,10,46,1,A,1.5
55,11,38,1,A,9.644
55,12,18,2,B,6.682
55,13,33,1,A,6.127
55,14,15,2,B,6.483
55,15,58,2,B,4.856
55,16,21,1,A,7.119
55,17,51,1,A,4.104
55,18,74,2,B,7.454
55,19,67,2,B,6.025
55,20,20,1,A,10.304
55,21,71,2,B,10.124
55,22,88,2,B,10.49
55,23,28,1,A,13.556
55,24,62,1,A,11.036
55,25,40,1,A,8.526
55,26,23,2,B,10.265
55,27,45,2,B,11.18
55,28,75,2,B,11.752
55,29,16,2,B,10.945
55,30,5,2,B,5.28
55,31,12,2,B,5.427
55,32,82,1,A,3.892
55,33,66,2,B,12.078
55,34,39,1,A,6.431
55,35,89,2,B,8.994
55,36,69,1,A,10.61
55,37,57,2,B,8.269
55,38,47,2,B,4.916
55,39,34,2,B,2.037
55,40,80,2,B,7.989
55,41,26,1,A,7.492
55,42,8,1,A,11.302
55,43,11,1,A,12.537
55,44,48,1,A,6.201
55,45,70,1,A,4.563
55,46,22,1,A,9.062
55,47,9,2,B,9.7
55,48,63,1,A,27.965
55,49,61,1,A,6.829
55,50,64,1,A,10.182
55,51,10,2,B,19.998
55,52,78,2,B,11.121
55,53,27,2,B,41.588
55,54,1,1,A,10.472
55,55,42,1,A,20.619
55,56,60,2,B,26.383
55,57,17,2,B,28.678
55,58,53,1,A,22.741
55,59,87,1,A,146.342
55,60,2,2,B,5.603
55,61,32,1,A,9.806
55,62,91,2,B,37.716
55,63,72,1,A,18.721
55,64,29,1,A,112.055
55,65,4,1,A,12.726
55,66,59,2,B,87.438
55,67,54,1,A,23.435
55,68,76,2,B,75.05
55,69,84,2,B,7.402
55,70,50,1,A,44.658
55,71,43,2,B,15.162
55,72,56,2,B,8.921
55,73,83,1,A,22.268
55,74,7,2,B,27.342
55,75,65,1,A,13.76
55,76,52,2,B,11.433
55,77,14,1,A,35.482
55,78,36,1,A,2.602
55,79,30,2,B,13.797
55,80,73,2,B,14.799
55,81,55,1,A,16.133
55,82,37,1,A,6.476
55,83,49,2,B,75.442
55,84,24,2,B,8.063
55,85,85,1,A,65.23
55,86,3,2,B,18.841
55,87,68,1,A,6.736
55,88,77,1,A,21.945
55,89,81,1,A,1.953
55,90,19,2,B,7.901
55,91,44,1,A,33.397
56,1,29,1,A,30.607
56,2,63,1,A,21.773
56,3,35,1,A,24.553
56,4,2,2,B,21.429
56,5,85,1,A,11.091
56,6,60,1,A,11.412
56,7,89,1,A,9.682
56,8,28,1,A,10.138
56,9,4,1,A,9.527
56,10,91,2,B,7.302
56,11,73,2,B,20.417
56,12,69,1,A,12.088
56,13,12,1,A,11.224
56,14,65,1,A,5.935
56,15,55,1,A,11.951
56,16,68,2,B,7.092
56,17,77,1,A,9.531
56,18,84,2,B,9.439
56,19,8,2,B,6.392
56,20,32,1,A,17.796
56,21,19,1,A,3.88
56,22,72,1,A,10.573
56,23,16,1,A,15.067
56,24,56,2,B,24.441
56,25,30,1,A,13.857
56,26,52,1,A,4
56,27,40,1,A,11.538
56,28,67,1,A,5.216
56,29,24,2,B,28.951
56,30,37,1,A,9.12
56,31,15,2,B,6.16
56,32,26,1,A,10.538
56,33,33,2,B,6.262
56,34,80,1,A,9.8
56,35,79,2,B,4.857
56,36,74,2,B,9.091
56,37,10,1,A,9.669
56,38,66,2,B,9.643
56,39,17,1,A,14.481
56,40,18,1,A,16.498
56,41,54,1,A,10.396
56,42,49,2,B,13.929
56,43,27,2,B,5.995
56,44,41,2,B,25.988
56,45,11,1,A,12.94
56,46,88,2,B,13.039
56,47,58,2,B,11.985
56,48,21,2,B,6.192
56,49,57,1,A,17.152
56,50,78,1,A,4.164
56,51,7,1,A,6.973
56,52,44,2,B,30.959
56,53,43,1,A,12.098
56,54,48,1,A,13.383
56,55,81,2,B,8.119
56,56,9,1,A,4.015
56,57,22,2,B,4.579
56,58,39,2,B,7.84
56,59,90,1,A,8.779
56,60,14,1,A,25.156
56,61,31,1,A,6.236
56,62,42,1,A,5.324
56,63,50,1,A,8.108
56,64,70,2,B,20.693
56,65,51,2,B,5.57
56,66,53,2,B,3.912
56,67,38,2,B,9.089
56,68,36,1,A,13.855
56,69,47,1,A,15.24
56,70,87,2,B,6.966
56,71,62,1,A,12.339
56,72,23,2,B,24.576
56,73,64,2,B,8.57
56,74,71,2,B,10.76
56,75,46,2,B,10.5
56,76,82,2,B,22.367
56,77,34,2,B,12.314
56,78,6,2,B,8.822
56,79,76,1,A,3.322
56,80,59,2,B,6.802
56,81,83,1,A,23.406
56,82,61,2,B,12.698
56,83,86,2,B,6.521
56,84,20,1,A,5.693
56,85,13,2,B,32.763
56,86,1,2,B,11.082
56,87,5,1,A,6.673
56,88,25,2,B,9.794
56,89,3,1,A,6.567
56,90,75,1,A,8.684
56,91,45,2,B,16.098
57,1,10,1,A,21.287
57,2,48,2,B,6.641
57,3,32,1,A,30.265
57,4,49,2,B,8.691
57,5,82,2,B,8.186
57,6,24,2,B,22.222
57,7,66,2,B,55.304
57,8,22,2,B,4.671
57,9,75,2,B,5.295
57,10,9,2,B,12.376
57,11,38,1,A,14.394
57,12,53,2,B,10.601
57,13,17,1,A,47.464
57,14,71,2,B,6.563
57,15,59,2,B,5.347
57,16,91,2,B,6.913
57,17,83,1,A,8.029
57,18,58,2,B,6.062
57,19,43,1,A,5.986
57,20,20,2,B,8.7
57,21,42,1,A,6.318
57,22,41,2,B,17.087
57,23,8,2,B,5.435
57,24,64,1,A,9.873
57,25,3,2,B,16.361
57,26,62,2,B,21.528
57,27,40,1,A,161.902
57,28,44,2,B,6.83
57,29,56,2,B,8.567
57,30,87,1,A,5.96
57,31,73,2,B,13.949
57,32,77,1,A,64.418
57,33,1,1,A,3.86
57,34,29,1,A,35.341
57,35,84,2,B,6.031
57,36,13,2,B,7.365
57,37,47,1,A,6.034
57,38,25,2,B,7.3
57,39,85,1,A,4.453
57,40,74,2,B,5.255
57,41,60,2,B,9.812
57,42,80,1,A,4.267
57,43,26,2,B,14.677
57,44,15,2,B,11.513
57,45,31,1,A,8.85
57,46,81,2,B,5.746
57,47,23,2,B,17.625
57,48,12,1,A,10.056
57,49,70,2,B,6.219
57,50,27,2,B,1.5
57,51,5,1,A,5.788
57,52,7,2,B,5.301
57,53,39,2,B,6.811
57,54,35,1,A,4.536
57,55,14,1,A,15.348
57,56,89,1,A,3.705
57,57,28,2,B,4.563
57,58,57,1,A,21.675
57,59,50,1,A,5.2
57,60,86,2,B,7.247
57,61,30,2,B,6.393
57,62,90,1,A,7.093
57,63,88,1,A,4.919
57,64,61,2,B,155.145
57,65,55,2,B,4.7
57,66,63,2,B,5.687
57,67,69,2,B,4.319
57,68,4,1,A,5.559
57,69,33,2,B,7.76
57,70,54,2,B,4.84
57,71,36,1,A,12.194
57,72,72,2,B,4.253
57,73,34,2,B,17.874
57,74,52,1,A,20.994
57,75,45,2,B,12.466
57,76,16,2,B,59.845
57,77,37,2,B,3.419
57,78,6,2,B,2.842
57,79,65,1,A,4.001
57,80,51,2,B,4.332
57,81,11,1,A,6.757
57,82,2,1,A,4.975
57,83,21,1,A,15.936
57,84,68,2,B,7.567
57,85,67,1,A,2.982
57,86,18,1,A,5.139
57,87,19,1,A,3.345
57,88,76,1,A,2.485
57,89,79,2,B,7.766
57,90,78,1,A,6.717
57,91,46,1,A,11.703
59,1,41,2,B,50.542
59,2,73,2,B,35.201
59,3,62,2,B,8.501
59,4,38,2,B,18.288
59,5,3,2,B,30.886
59,6,90,1,A,9.146
59,7,11,2,B,23.297
59,8,69,1,A,25.788
59,9,56,1,A,15.548
59,10,81,1,A,10.355
59,11,82,2,B,29.1
59,12,21,1,A,12.593
59,13,30,2,B,35.554
59,14,85,1,A,13.761
59,15,76,2,B,8.201
59,16,32,2,B,10.032
59,17,24,2,B,9.563
59,18,25,2,B,13.127
59,19,5,1,A,9.141
59,20,89,1,A,19.455
59,21,74,2,B,12.056
59,22,2,2,B,10.283
59,23,61,1,A,14.491
59,24,75,2,B,13.755
59,25,53,2,B,18.723
59,26,80,2,B,11.478
59,27,65,1,A,79
59,28,52,1,A,8.291
59,29,60,2,B,10.094
59,30,18,2,B,16.301
59,31,8,2,B,14.626
59,32,33,2,B,19.162
59,33,6,2,B,9.569
59,34,71,2,B,61.178
59,35,17,2,B,6.342
59,36,50,2,B,18.248
59,37,27,2,B,16.561
59,38,23,2,B,7.981
59,39,1,2,B,19.1
59,40,22,2,B,7.902
59,41,29,2,B,57.752
59,42,91,2,B,7.159
59,43,7,2,B,19.201
59,44,15,2,B,8.862
59,45,43,2,B,7.945
59,46,57,2,B,30.747
59,47,13,2,B,12.484
59,48,47,2,B,14.901
59,49,14,1,A,17.601
59,50,36,1,A,13.451
59,51,51,2,B,10.3
59,52,31,2,B,9.941
59,53,63,2,B,6.334
59,54,66,2,B,16.921
59,55,67,1,A,11.101
59,56,84,2,B,10.987
59,57,42,1,A,13.201
59,58,88,2,B,6.001
59,59,26,2,B,44.947
59,60,49,2,B,8.577
59,61,40,1,A,9.243
59,62,83,1,A,16.343
59,63,10,1,A,14.001
59,64,48,1,A,19.266
59,65,68,2,B,15.477
59,66,64,1,A,25.532
59,67,9,2,B,17.793
59,68,37,1,A,10.201
59,69,70,1,A,14.031
59,70,55,2,B,20.275
59,71,35,1,A,15.192
59,72,4,1,A,13.549
59,73,19,1,A,23.148
59,74,12,1,A,9.291
59,75,28,1,A,15
59,76,77,1,A,12.644
59,77,87,1,A,15.057
59,78,45,2,B,20.169
59,79,54,1,A,11.101
59,80,59,2,B,2.754
59,81,39,2,B,2.559
59,82,79,1,A,3.402
59,83,34,1,A,9.022
59,84,46,2,B,7.801
59,85,58,2,B,9.334
59,86,78,1,A,4.901
59,87,44,2,B,17.29
59,88,72,1,A,7.8
59,89,86,2,B,5.851
59,90,16,1,A,2.051
59,91,20,1,A,1.523
60,1,64,1,A,24.056
60,2,73,2,B,11.271
60,3,21,1,A,27.385
60,4,18,1,A,17.025
60,5,32,2,B,12.732
60,6,6,2,B,15.506
60,7,54,2,B,18.937
60,8,3,1,A,21.135
60,9,66,1,A,11.204
60,10,16,1,A,15.77
60,11,62,2,B,8.038
60,12,87,1,A,16.354
60,13,40,1,A,25.569
60,14,38,2,B,14.099
60,15,7,1,A,17.136
60,16,29,1,A,24.19
60,17,17,1,A,11.939
60,18,41,2,B,10.25
60,19,51,2,B,29.54
60,20,4,2,B,32.623
60,21,86,2,B,12.823
60,22,88,1,A,19.894
60,23,26,1,A,15.708
60,24,36,1,A,30.727
60,25,42,1,A,14.476
60,26,31,1,A,15.936
60,27,68,2,B,15.37
60,28,35,1,A,20.358
60,29,71,2,B,12.749
60,30,80,1,A,23.243
60,31,52,2,B,28.091
60,32,72,1,A,12.631
60,33,59,2,B,21.762
60,34,84,2,B,13.493
60,35,11,1,A,19.566
60,36,90,2,B,11.039
60,37,19,1,A,15.402
60,38,65,1,A,10.538
60,39,79,2,B,22.647
60,40,39,2,B,27.088
60,41,47,1,A,35.379
60,42,83,1,A,13.403
60,43,55,1,A,8.339
60,44,27,2,B,15.545
60,45,48,2,B,6.693
60,46,30,2,B,8.079
60,47,61,2,B,16.012
60,48,12,1,A,36.429
60,49,81,2,B,5.539
60,50,78,1,A,9.366
60,51,13,1,A,10.668
60,52,82,2,B,12.994
60,53,46,2,B,13.916
60,54,49,2,B,25.244
60,55,45,2,B,15.587
60,56,25,2,B,7.593
60,57,43,2,B,7.668
60,58,67,1,A,8.298
60,59,58,1,A,15.074
60,60,1,2,B,43.998
60,61,34,2,B,25.355
60,62,50,1,A,9.949
60,63,5,1,A,11.415
60,64,70,1,A,18.047
60,65,74,2,B,12.828
60,66,23,2,B,9.835
60,67,89,2,B,16.26
60,68,28,1,A,28.836
60,69,22,2,B,17.313
60,70,9,2,B,8.386
60,71,63,1,A,10.596
60,72,2,1,A,39.623
60,73,56,2,B,15.749
60,74,44,2,B,10.481
60,75,53,1,A,9.915
60,76,37,1,A,19.635
60,77,15,2,B,10.344
60,78,57,2,B,9.958
60,79,76,1,A,8.659
60,80,24,2,B,9.707
60,81,60,2,B,29.906
60,82,10,1,A,25.841
60,83,33,2,B,8.557
60,84,77,2,B,8.124
60,85,8,2,B,8.598
60,86,91,2,B,15.415
60,87,20,1,A,8.745
60,88,75,1,A,10.053
60,89,85,1,A,13.046
60,90,69,1,A,21.071
60,91,14,2,B,8.648
61,1,83,1,A,12.025
61,2,47,1,A,7.914
61,3,82,2,B,7.377
61,4,46,1,A,6.931
61,5,86,2,B,5.481
61,6,41,2,B,9.791
61,7,28,1,A,6.133
61,8,91,2,B,8.314
61,9,63,1,A,7.98
61,10,20,1,A,5.093
61,11,31,1,A,12.241
61,12,16,1,A,8.538
61,13,88,1,A,8.683
61,14,11,1,A,12.268
61,15,60,1,A,8.844
61,16,66,1,A,4.699
61,17,73,1,A,10.473
61,18,24,2,B,6.616
61,19,5,1,A,12.596
61,20,35,1,A,8.296
61,21,69,2,B,10.422
61,22,80,2,B,17.843
61,23,85,1,A,30.23
61,24,43,2,B,3.816
61,25,51,1,A,8.272
61,26,23,1,A,8.57
61,27,40,2,B,11.753
61,28,7,2,B,19.177
61,29,55,2,B,14.574
61,30,3,2,B,4.816
61,31,52,1,A,10.77
61,32,37,2,B,33.241
61,33,9,2,B,5.031
61,34,22,1,A,6.067
61,35,84,2,B,4.42
61,36,33,1,A,9.408
61,37,8,1,A,4.979
61,38,38,2,B,10.758
61,39,12,2,B,4.458
61,40,18,1,A,5.315
61,41,4,2,B,7.459
61,42,64,1,A,9.459
61,43,19,1,A,7.051
61,44,87,1,A,5.789
61,45,76,2,B,3.952
61,46,65,1,A,3.539
61,47,89,2,B,37.639
61,48,61,1,A,7.354
61,49,48,1,A,8.522
61,50,1,2,B,4.873
61,51,42,1,A,3.673
61,52,29,2,B,3.439
61,53,54,1,A,5.326
61,54,77,1,A,4.11
61,55,79,1,A,3.05
61,56,72,1,A,4.772
61,57,49,2,B,6.415
61,58,70,1,A,7.866
61,59,68,2,B,6.699
61,60,74,2,B,8.199
61,61,34,1,A,2.586
61,62,57,2,B,5.762
61,63,58,1,A,8.365
61,64,62,2,B,11.5
61,65,71,2,B,10.622
61,66,2,2,B,8.346
61,67,17,1,A,6.087
61,68,27,2,B,3.965
61,69,56,1,A,1.224
61,70,36,2,B,1.358
61,71,26,2,B,4.439
61,72,75,1,A,0.945
61,73,59,1,A,4.217
61,74,90,2,B,3.47
61,75,67,1,A,6.462
61,76,6,2,B,9.548
61,77,15,1,A,3.564
61,78,25,2,B,7.381
61,79,39,2,B,7.2
61,80,10,1,A,2.812
61,81,32,2,B,4.319
61,82,44,2,B,5.33
61,83,50,1,A,6.475
61,84,30,1,A,7.101
61,85,21,1,A,8.017
61,86,53,2,B,3.557
61,87,78,1,A,1.965
61,88,13,2,B,6.292
61,89,81,1,A,6.244
61,90,14,1,A,4.485
61,91,45,2,B,5.68
62,1,21,1,A,12.219
62,2,3,2,B,5.909
62,3,57,1,A,8.433
62,4,10,1,A,8.234
62,5,54,2,B,7.264
62,6,12,2,B,6.951
62,7,91,2,B,14.331
62,8,52,1,A,12.784
62,9,75,1,A,10.208
62,10,7,2,B,15.62
62,11,58,1,A,42.632
62,12,63,2,B,6.129
62,13,84,2,B,5.337
62,14,8,2,B,11.242
62,15,74,1,A,8.337
62,16,68,2,B,3.236
62,17,16,1,A,3.397
62,18,25,2,B,8.03
62,19,81,1,A,3.766
62,20,11,2,B,5.753
62,21,88,1,A,5.688
62,22,79,1,A,1.952
62,23,24,2,B,3.142
62,24,78,2,B,1.517
62,25,47,1,A,11.424
62,26,82,2,B,17.06
62,27,35,2,B,55.525
62,28,83,1,A,4.592
62,29,42,2,B,10.509
62,30,18,1,A,4.725
62,31,62,1,A,6.595
62,32,15,2,B,7.462
62,33,64,2,B,17.808
62,34,65,1,A,5.948
62,35,76,2,B,3.781
62,36,86,2,B,6.996
62,37,70,1,A,9.76
62,38,4,1,A,25.377
62,39,43,2,B,11.184
62,40,32,2,B,16.274
62,41,37,2,B,16.058
62,42,1,2,B,4.582
62,43,28,2,B,15.823
62,44,20,1,A,3.95
62,45,36,1,A,57.536
62,46,73,2,B,30.485
62,47,56,1,A,4.435
62,48,77,1,A,2.216
62,49,53,2,B,5.573
62,50,2,1,A,22.941
62,51,46,1,A,28.216
62,52,30,2,B,31.043
62,53,22,1,A,9.631
62,54,60,2,B,24.702
62,55,61,2,B,2.834
62,56,59,1,A,7.149
62,57,6,2,B,6.026
62,58,19,1,A,8.426
62,59,27,1,A,6.877
62,60,45,2,B,47.16
62,61,80,2,B,6.431
62,62,5,2,B,23.659
62,63,49,1,A,4.868
62,64,38,1,A,4.536
62,65,33,2,B,9.255
62,66,31,1,A,19.341
62,67,55,1,A,4.916
62,68,26,2,B,9.544
62,69,44,2,B,9.693
62,70,71,1,A,20.215
62,71,87,1,A,53.347
62,72,72,1,A,14.985
62,73,85,2,B,9.801
62,74,67,1,A,6.994
62,75,9,1,A,5.69
62,76,29,1,A,6.6
62,77,89,1,A,2.936
62,78,23,2,B,2.499
62,79,90,1,A,5.015
62,80,48,1,A,5.037
62,81,69,1,A,8.945
62,82,51,2,B,8.788
62,83,39,2,B,12.898
62,84,66,1,A,7.924
62,85,40,1,A,122.747
62,86,41,2,B,8.859
62,87,13,2,B,5.784
62,88,17,1,A,7.426
62,89,14,1,A,5.081
62,90,50,1,A,4.451
62,91,34,1,A,5.206
63,1,65,1,A,6.867
63,2,9,1,A,11.072
63,3,4,1,A,8.039
63,4,15,2,B,7.689
63,5,74,2,B,9.671
63,6,41,2,B,49.305
63,7,42,1,A,11.398
63,8,63,1,A,6.694
63,9,7,2,B,14.196
63,10,46,2,B,35.194
63,11,26,1,A,13.732
63,12,25,2,B,7.233
63,13,89,1,A,7.614
63,14,44,2,B,13.064
63,15,53,1,A,65.839
63,16,24,2,B,12.791
63,17,79,2,B,11.926
63,18,81,2,B,7.076
63,19,34,1,A,18.601
63,20,56,2,B,10.92
63,21,91,2,B,7.814
63,22,18,1,A,20.956
63,23,80,1,A,7.173
63,24,43,1,A,39.035
63,25,90,1,A,4.862
63,26,61,2,B,7.632
63,27,82,2,B,10.592
63,28,84,2,B,8.746
63,29,20,1,A,18.363
63,30,68,2,B,20.252
63,31,5,1,A,10.186
63,32,70,1,A,9.473
63,33,31,1,A,11.084
63,34,37,2,B,16.585
63,35,85,1,A,12.248
63,36,6,2,B,11.63
63,37,17,1,A,13.632
63,38,36,1,A,18.935
63,39,30,2,B,18.481
63,40,39,2,B,17.677
63,41,21,1,A,16.696
63,42,87,1,A,13.654
63,43,16,2,B,8.069
63,44,3,1,A,8.613
63,45,88,1,A,12.436
63,46,55,2,B,63.855
63,47,10,1,A,7.44
63,48,71,2,B,9.267
63,49,72,1,A,8.322
63,50,48,1,A,10.844
63,51,58,2,B,14.771
63,52,32,1,A,10.165
63,53,45,2,B,55.977
63,54,64,2,B,8.947
63,55,47,1,A,11.139
63,56,60,1,A,54.052
63,57,86,2,B,7.79
63,58,59,2,B,8.174
63,59,83,1,A,8.157
63,60,77,2,B,5.957
63,61,73,2,B,14.375
63,62,69,2,B,12.863
63,63,40,1,A,14.141
63,64,49,2,B,11.943
63,65,19,1,A,5.802
63,66,23,2,B,6.94
63,67,35,1,A,8.745
63,68,78,1,A,4.698
63,69,75,2,B,10.636
63,70,28,1,A,13.215
63,71,50,1,A,13.64
63,72,62,1,A,21.068
63,73,54,2,B,92.328
63,74,22,2,B,5.023
63,75,33,1,A,11.694
63,76,2,2,B,15.897
63,77,66,1,A,12.525
63,78,1,2,B,18.121
63,79,14,1,A,85.932
63,80,13,2,B,11.715
63,81,76,1,A,6.121
63,82,67,1,A,8.124
63,83,52,1,A,11.11
63,84,57,1,A,16.322
63,85,29,1,A,11.214
63,86,27,2,B,6.465
63,87,11,1,A,10.582
63,88,12,1,A,6.613
63,89,38,2,B,19.207
63,90,8,2,B,6.565
63,91,51,2,B,54.769
66,1,58,2,B,19.808
66,2,82,2,B,12.997
66,3,39,2,B,23.663
66,4,14,2,B,63.466
66,5,33,2,B,27.91
66,6,24,2,B,9.833
66,7,80,2,B,18.951
66,8,11,2,B,9.396
66,9,55,1,A,103.751
66,10,25,2,B,8.996
66,11,22,2,B,12.929
66,12,18,2,B,11.377
66,13,12,1,A,8.673
66,14,16,2,B,23.139
66,15,37,2,B,38.91
66,16,50,1,A,21.213
66,17,91,2,B,13.501
66,18,27,2,B,9.578
66,19,46,1,A,11.661
66,20,70,2,B,44.7
66,21,32,1,A,33.879
66,22,4,2,B,18.072
66,23,47,1,A,18.999
66,24,69,2,B,27.061
66,25,79,2,B,15.631
66,26,23,2,B,10.02
66,27,61,1,A,16.101
66,28,87,2,B,15.011
66,29,21,2,B,11.525
66,30,75,1,A,14.801
66,31,35,1,A,17.02
66,32,71,2,B,32.562
66,33,30,1,A,21.644
66,34,89,2,B,13.001
66,35,1,2,B,14.601
66,36,15,2,B,8.313
66,37,43,2,B,17.876
66,38,44,2,B,14.4
66,39,20,1,A,23.289
66,40,6,2,B,18.922
66,41,19,1,A,24.112
66,42,7,2,B,22.6
66,43,67,1,A,20.672
66,44,81,2,B,15.509
66,45,72,2,B,13.61
66,46,59,2,B,12.264
66,47,38,2,B,11.635
66,48,36,2,B,22.155
66,49,63,1,A,13.836
66,50,45,1,A,38.845
66,51,48,2,B,10.852
66,52,28,2,B,15.281
66,53,65,1,A,13.001
66,54,40,1,A,25.874
66,55,74,2,B,17.554
66,56,10,1,A,41.201
66,57,66,1,A,9.622
66,58,9,2,B,10.768
66,59,86,1,A,10.329
66,60,78,1,A,9.377
66,61,51,2,B,14.419
66,62,13,1,A,23.974
66,63,84,2,B,7.653
66,64,90,2,B,7.313
66,65,54,2,B,16.746
66,66,31,1,A,13.867
66,67,17,1,A,8.601
66,68,8,2,B,8.459
66,69,29,1,A,12.422
66,70,68,2,B,11.719
66,71,57,1,A,12.474
66,72,52,1,A,13.785
66,73,41,2,B,25.11
66,74,56,2,B,10.341
66,75,2,2,B,9.76
66,76,49,2,B,14.682
66,77,34,2,B,9.398
66,78,64,1,A,8.075
66,79,83,1,A,10.918
66,80,53,2,B,12.671
66,81,73,1,A,12.158
66,82,62,2,B,20.574
66,83,88,1,A,11.2
66,84,77,2,B,5.966
66,85,5,1,A,19.339
66,86,60,2,B,12.443
66,87,26,2,B,18.644
66,88,85,1,A,8.729
66,89,3,2,B,15.888
66,90,42,1,A,17.516
66,91,76,2,B,6.686
67,1,72,1,A,29.912
67,2,64,2,B,8.072
67,3,57,1,A,6.601
67,4,4,2,B,3.76
67,5,80,2,B,7.201
67,6,40,2,B,7.501
67,7,10,1,A,10.001
67,8,56,2,B,7.369
67,9,8,1,A,7.701
67,10,51,1,A,4.501
67,11,90,1,A,7.1
67,12,85,1,A,3.274
67,13,45,2,B,7.001
67,14,70,2,B,25.196
67,15,15,2,B,8.701
67,16,19,1,A,3
67,17,16,2,B,6.701
67,18,82,2,B,5.401
67,19,87,2,B,4.893
67,20,37,1,A,5.601
67,21,68,2,B,7.701
67,22,30,2,B,5.401
67,23,65,1,A,6.75
67,24,33,2,B,7.401
67,25,63,1,A,3.856
67,26,53,2,B,5.199
67,27,39,2,B,4.201
67,28,61,2,B,9.6
67,29,5,1,A,3.169
67,30,77,1,A,5.8
67,31,12,2,B,7.185
67,32,29,1,A,4.802
67,33,20,1,A,8.384
67,34,50,1,A,5.885
67,35,23,1,A,3.401
67,36,42,2,B,6.264
67,37,84,1,A,4.302
67,38,74,1,A,2.967
67,39,76,2,B,10.1
67,40,44,1,A,7.104
67,41,28,1,A,16.197
67,42,31,1,A,5.194
67,43,47,2,B,9.444
67,44,55,1,A,4.968
67,45,91,2,B,8.202
67,46,89,1,A,14.1
67,47,11,2,B,29.401
67,48,43,1,A,4.301
67,49,81,1,A,4.202
67,50,59,2,B,10.957
67,51,66,2,B,21.48
67,52,75,2,B,2.68
67,53,6,1,A,8.1
67,54,34,1,A,5.201
67,55,54,2,B,9.4
67,56,9,1,A,6.574
67,57,17,1,A,6.087
67,58,26,1,A,11.501
67,59,49,2,B,21.601
67,60,58,2,B,16.1
67,61,27,1,A,7.2
67,62,3,1,A,2.8
67,63,35,1,A,13.701
67,64,7,1,A,23.871
67,65,62,1,A,4.284
67,66,13,1,A,6.571
67,67,88,2,B,10.6
67,68,24,2,B,4.685
67,69,22,2,B,3.605
67,70,25,2,B,2.987
67,71,60,2,B,38.349
67,72,32,1,A,7.458
67,73,79,1,A,9.6
67,74,86,1,A,2.6
67,75,36,1,A,6.301
67,76,71,2,B,6.495
67,77,1,2,B,5.06
67,78,78,2,B,13.495
67,79,67,1,A,13.902
67,80,2,1,A,3.562
67,81,14,1,A,4.401
67,82,46,2,B,6.399
67,83,41,2,B,18.201
67,84,73,2,B,3.456
67,85,52,2,B,2.888
67,86,48,1,A,2.488
67,87,38,1,A,1.58
67,88,21,2,B,3.378
67,89,83,1,A,3.002
67,90,18,2,B,36.448
67,91,69,1,A,2.375
68,1,52,1,A,8.579
68,2,58,1,A,19.201
68,3,2,2,B,4.778
68,4,29,1,A,8.244
68,5,59,2,B,14.415
68,6,68,2,B,16.892
68,7,47,1,A,4.751
68,8,21,1,A,20.488
68,9,67,1,A,5.989
68,10,84,2,B,11.934
68,11,46,1,A,32.036
68,12,35,1,A,7.268
68,13,89,1,A,8.848
68,14,69,2,B,12.966
68,15,37,1,A,13.537
68,16,65,1,A,106.677
68,17,90,1,A,3.003
68,18,8,2,B,4.794
68,19,6,1,A,6.838
68,20,45,1,A,7.659
68,21,73,2,B,14.914
68,22,77,1,A,362.655
68,23,61,2,B,17.08
68,24,63,1,A,5.678
68,25,72,1,A,20.985
68,26,42,1,A,48.914
68,27,10,1,A,7.002
68,28,17,1,A,5.736
68,29,83,1,A,94.957
68,30,33,2,B,26.8
68,31,70,1,A,6.7
68,32,15,1,A,10.229
68,33,51,1,A,11.34
68,34,39,2,B,23.774
68,35,25,2,B,5.039
68,36,32,1,A,10.543
68,37,34,2,B,7.711
68,38,26,2,B,12.921
68,39,36,2,B,10.973
68,40,12,1,A,6.522
68,41,53,2,B,6.882
68,42,31,2,B,49.031
68,43,55,1,A,7.331
68,44,38,2,B,4.314
68,45,48,1,A,10.93
68,46,9,1,A,10.939
68,47,54,2,B,11.882
68,48,78,2,B,23.493
68,49,56,2,B,7.065
68,50,79,1,A,7.673
68,51,64,2,B,11.846
68,52,20,1,A,5.217
68,53,71,2,B,8.347
68,54,19,1,A,3.911
68,55,22,2,B,5.369
68,56,23,2,B,23.761
68,57,81,1,A,3.218
68,58,82,2,B,4.283
68,59,13,2,B,19.466
68,60,1,2,B,13.273
68,61,49,2,B,25.306
68,62,91,2,B,8.345
68,63,88,2,B,18.491
68,64,74,1,A,12.482
68,65,76,2,B,103.272
68,66,4,1,A,3.429
68,67,41,2,B,4.67
68,68,3,1,A,4.492
68,69,87,2,B,5.512
68,70,50,1,A,39.657
68,71,57,1,A,5.558
68,72,14,1,A,5.683
68,73,7,1,A,3.489
68,74,18,2,B,5.401
68,75,44,2,B,4.457
68,76,27,2,B,56.585
68,77,28,1,A,3.387
68,78,16,2,B,4.8
68,79,75,1,A,7.032
68,80,40,1,A,9.046
68,81,62,1,A,34.392
68,82,86,1,A,192.014
68,83,43,2,B,16.311
68,84,66,2,B,9.371
68,85,80,2,B,16.05
68,86,5,2,B,9.155
68,87,11,1,A,14.445
68,88,85,2,B,11.933
68,89,30,2,B,4.068
68,90,24,2,B,5.923
68,91,60,1,A,7.92
70,1,48,2,B,60.962
70,2,70,1,A,50.195
70,3,1,2,B,44.64
70,4,16,1,A,42.886
70,5,41,2,B,53.581
70,6,81,1,A,16.007
70,7,82,2,B,19.853
70,8,9,2,B,14.547
70,9,34,1,A,31.636
70,10,66,2,B,21.575
70,11,67,1,A,18.388
70,12,23,2,B,15.791
70,13,5,2,B,18.831
70,14,88,1,A,13.358
70,15,53,2,B,11.351
70,16,25,2,B,20.523
70,17,72,1,A,36.756
70,18,12,2,B,10.189
70,19,85,1,A,12.058
70,20,40,1,A,19.729
70,21,57,2,B,31.791
70,22,38,2,B,68.736
70,23,45,1,A,16.403
70,24,44,1,A,22.208
70,25,39,2,B,54.756
70,26,68,2,B,26.286
70,27,89,1,A,21.47
70,28,73,2,B,19.13
70,29,17,1,A,28.851
70,30,8,2,B,24.94
70,31,35,1,A,37.957
70,32,37,2,B,55.93
70,33,18,1,A,21.207
70,34,24,2,B,13.466
70,35,74,2,B,15.148
70,36,3,1,A,70.739
70,37,10,1,A,14.784
70,38,84,2,B,15.587
70,39,28,1,A,33.687
70,40,15,2,B,19.83
70,41,59,2,B,5.421
70,42,26,2,B,13.966
70,43,30,2,B,7.271
70,44,6,1,A,4.993
70,45,36,2,B,15.859
70,46,13,1,A,27.293
70,47,55,2,B,20.304
70,48,78,1,A,21.844
70,49,43,2,B,12.02
70,50,31,1,A,15.132
70,51,65,1,A,37.787
70,52,60,1,A,32.129
70,53,87,1,A,16.063
70,54,86,2,B,8.818
70,55,20,1,A,24.045
70,56,51,2,B,17.758
70,57,33,2,B,54.736
70,58,7,2,B,9.407
70,59,21,2,B,18.775
70,60,90,1,A,12.314
70,61,69,2,B,18.051
70,62,46,1,A,44.185
70,63,4,1,A,27.85
70,64,64,1,A,126.395
70,65,63,1,A,14.06
70,66,19,1,A,33.666
70,67,56,2,B,17.114
70,68,29,1,A,13.106
70,69,54,2,B,10.446
70,70,27,2,B,18.319
70,71,50,1,A,19.562
70,72,58,2,B,24.985
70,73,80,1,A,14.021
70,74,11,1,A,12.974
70,75,47,1,A,20.534
70,76,83,1,A,11.829
70,77,61,2,B,10.866
70,78,2,2,B,9.802
70,79,71,2,B,24.824
70,80,91,2,B,16.107
70,81,52,1,A,23.881
70,82,22,2,B,10.764
70,83,32,2,B,14.703
70,84,49,2,B,11.415
70,85,75,2,B,14.813
70,86,62,2,B,33.274
70,87,42,1,A,18.297
70,88,79,2,B,36.007
70,89,77,2,B,26.362
70,90,14,1,A,22.179
70,91,76,2,B,9.672
71,1,76,2,B,24.075
71,2,24,2,B,46.105
71,3,22,2,B,20.642
71,4,86,2,B,13.106
71,5,42,1,A,16.809
71,6,58,2,B,19.067
71,7,71,2,B,12.215
71,8,10,1,A,16.367
71,9,35,1,A,10.275
71,10,28,1,A,11.313
71,11,31,2,B,26.071
71,12,80,2,B,19.442
71,13,21,1,A,8.391
71,14,90,1,A,6.073
71,15,27,2,B,10.908
71,16,70,1,A,34.904
71,17,89,1,A,9.305
71,18,36,1,A,22.703
71,19,82,2,B,7.562
71,20,14,1,A,27.501
71,21,1,2,B,16.213
71,22,68,2,B,22.308
71,23,66,2,B,21.303
71,24,32,2,B,25.097
71,25,73,1,A,13.569
71,26,61,2,B,7.765
71,27,78,2,B,5.077
71,28,62,2,B,10.601
71,29,43,2,B,8.482
71,30,87,1,A,11.458
71,31,51,1,A,11.31
71,32,30,2,B,14.384
71,33,38,2,B,10.444
71,34,85,1,A,22.097
71,35,6,1,A,17.638
71,36,33,2,B,20.185
71,37,19,1,A,8.987
71,38,5,2,B,19.49
71,39,20,1,A,9.28
71,40,49,2,B,23.748
71,41,3,1,A,13.489
71,42,72,1,A,27.866
71,43,55,2,B,17.46
71,44,52,1,A,12.264
71,45,23,2,B,6.339
71,46,84,2,B,9.772
71,47,57,1,A,18.28
71,48,29,1,A,15.603
71,49,18,1,A,8.596
71,50,25,2,B,12.61
71,51,7,1,A,11.41
71,52,88,2,B,12.436
71,53,53,2,B,8.089
71,54,59,2,B,7.943
71,55,44,2,B,8.505
71,56,40,1,A,11.903
71,57,91,2,B,21.985
71,58,54,2,B,14.138
71,59,65,1,A,9.301
71,60,2,1,A,6.297
71,61,12,1,A,5.607
71,62,64,1,A,8.058
71,63,11,1,A,6.291
71,64,37,2,B,16.877
71,65,63,2,B,8.112
71,66,41,2,B,10.665
71,67,34,2,B,8.202
71,68,69,2,B,13.177
71,69,83,1,A,15.603
71,70,48,1,A,20.505
71,71,16,1,A,29.98
71,72,60,1,A,18.011
71,73,13,1,A,14.714
71,74,46,2,B,17.759
71,75,81,2,B,19.681
71,76,17,1,A,19.569
71,77,56,2,B,15.299
71,78,77,1,A,32.979
71,79,74,2,B,7.478
71,80,9,1,A,7.303
71,81,4,2,B,21.141
71,82,75,1,A,22.707
71,83,67,2,B,17.071
71,84,8,2,B,13.906
71,85,39,1,A,17.444
71,86,47,1,A,8.304
71,87,26,1,A,10.876
71,88,50,2,B,43.911
71,89,15,2,B,11.77
71,90,45,2,B,25.155
71,91,79,1,A,12.286
73,1,16,1,A,22.684
73,2,87,1,A,17.601
73,3,81,2,B,12.372
73,4,86,1,A,15.078
73,5,58,1,A,15.55
73,6,15,2,B,20.89
73,7,24,2,B,11.496
73,8,68,2,B,12.136
73,9,39,2,B,19.633
73,10,32,2,B,9.346
73,11,17,1,A,8.701
73,12,67,1,A,10.765
73,13,2,1,A,1142.085
73,14,70,1,A,12.231
73,15,66,1,A,14.38
73,16,75,1,A,8.65
73,17,26,1,A,13.627
73,18,42,1,A,9.116
73,19,23,2,B,12.468
73,20,10,1,A,7.189
73,21,91,2,B,10.671
73,22,50,1,A,11.588
73,23,19,1,A,5.612
73,24,62,2,B,10.501
73,25,35,1,A,12.117
73,26,53,2,B,10.402
73,27,36,1,A,16.625
73,28,20,1,A,286.125
73,29,77,1,A,52.885
73,30,65,1,A,5.937
73,31,85,2,B,27.221
73,32,30,2,B,9.333
73,33,41,2,B,15.901
73,34,7,2,B,11.744
73,35,74,2,B,12.745
73,36,34,1,A,9.636
73,37,64,1,A,23.193
73,38,46,2,B,12.42
73,39,89,1,A,12.682
73,40,18,2,B,14.252
73,41,76,2,B,8.701
73,42,13,1,A,10.322
73,43,27,2,B,10.139
73,44,38,2,B,13.696
73,45,45,1,A,11.827
73,46,8,2,B,33.47
73,47,73,2,B,26.986
73,48,25,2,B,54.833
73,49,52,1,A,9.2
73,50,31,1,A,8.557
73,51,40,1,A,9.387
73,52,51,1,A,14.533
73,53,83,1,A,13.569
73,54,44,2,B,23.301
73,55,6,2,B,36.56
73,56,12,2,B,7.301
73,57,82,2,B,6.3
73,58,9,1,A,67.33
73,59,11,1,A,26.942
73,60,61,2,B,13.883
73,61,54,1,A,18.866
73,62,71,2,B,9.391
73,63,56,1,A,10.689
73,64,90,1,A,5.836
73,65,59,2,B,11.626
73,66,57,2,B,15.283
73,67,21,1,A,6.46
73,68,69,1,A,10.97
73,69,60,2,B,10.149
73,70,48,1,A,9.699
73,71,3,1,A,17.401
73,72,5,1,A,11.063
73,73,4,2,B,11.857
73,74,78,2,B,12.977
73,75,72,2,B,10.66
73,76,88,1,A,9.171
73,77,1,2,B,8.237
73,78,63,1,A,7.802
73,79,55,2,B,11.601
73,80,47,1,A,13.093
73,81,43,2,B,9.951
73,82,37,2,B,7.222
73,83,33,2,B,8.102
73,84,84,2,B,8.672
73,85,28,1,A,9.726
73,86,22,2,B,7.96
73,87,29,2,B,8.95
73,88,49,2,B,13.884
73,89,14,1,A,13.57
73,90,79,1,A,8.495
73,91,80,2,B,7.033
74,1,66,2,B,17.148
74,2,34,1,A,10.882
74,3,64,1,A,5.334
74,4,50,1,A,14.675
74,5,33,1,A,2.272
74,6,10,1,A,16.713
74,7,91,2,B,11.125
74,8,75,1,A,21.587
74,9,31,1,A,7.876
74,10,40,1,A,7.88
74,11,13,1,A,6.212
74,12,18,1,A,14.53
74,13,80,2,B,32.593
74,14,55,1,A,18.586
74,15,12,1,A,8.736
74,16,7,2,B,52.446
74,17,5,2,B,6.119
74,18,53,1,A,3.358
74,19,76,2,B,2.189
74,20,90,1,A,6.54
74,21,79,2,B,9.929
74,22,2,2,B,2.758
74,23,30,2,B,4.656
74,24,82,2,B,7.376
74,25,58,2,B,5.763
74,26,8,2,B,5.434
74,27,14,1,A,8.87
74,28,1,1,A,11.054
74,29,20,1,A,5.087
74,30,6,1,A,4.466
74,31,59,1,A,5.422
74,32,73,2,B,11.288
74,33,68,2,B,8.689
74,34,9,1,A,4.156
74,35,26,1,A,4.8
74,36,21,1,A,4.101
74,37,39,2,B,6.349
74,38,23,2,B,3.171
74,39,60,1,A,31.428
74,40,85,2,B,2.267
74,41,49,1,A,1.57
74,42,3,1,A,0.699
74,43,77,1,A,0.419
74,44,16,1,A,0.901
74,45,43,2,B,3.074
74,46,11,2,B,6.03
74,47,41,2,B,6.921
74,48,81,2,B,8.57
74,49,51,1,A,10
74,50,17,1,A,4.727
74,51,57,1,A,5.6
74,52,88,1,A,5.528
74,53,72,1,A,4.168
74,54,70,2,B,11.922
74,55,61,2,B,2.635
74,56,48,2,B,10.671
74,57,15,2,B,6.55
74,58,86,1,A,4.382
74,59,63,1,A,6.589
74,60,56,2,B,6.801
74,61,69,2,B,16.661
74,62,24,2,B,4.627
74,63,28,1,A,5.44
74,64,47,1,A,1.48
74,65,44,1,A,1.625
74,66,65,1,A,3.954
74,67,25,2,B,4.669
74,68,4,2,B,37.72
74,69,78,2,B,2.857
74,70,67,1,A,3.291
74,71,35,2,B,29.379
74,72,87,1,A,249.401
74,73,71,2,B,20.202
74,74,45,2,B,10.845
74,75,19,2,B,27.333
74,76,42,2,B,7.873
74,77,32,2,B,3.463
74,78,37,2,B,6.667
74,79,54,1,A,7.4
74,80,27,2,B,4.987
74,81,83,1,A,5.64
74,82,89,1,A,1.699
74,83,46,1,A,0.587
74,84,62,2,B,1.17
74,85,36,1,A,1.367
74,86,29,2,B,3.518
74,87,84,2,B,3.582
74,88,74,2,B,2.647
74,89,22,2,B,2.696
74,90,38,1,A,5.235
74,91,52,1,A,4.772
75,1,76,2,B,26.801
75,2,9,2,B,24.165
75,3,26,1,A,13.103
75,4,53,2,B,16.601
75,5,85,2,B,50.498
75,6,88,1,A,12.764
75,7,82,2,B,10.278
75,8,18,1,A,9.601
75,9,11,2,B,11.191
75,10,32,1,A,21.794
75,11,54,2,B,57.627
75,12,31,1,A,7.444
75,13,42,1,A,4.468
75,14,58,2,B,5.538
75,15,84,2,B,7.936
75,16,33,1,A,8.602
75,17,91,2,B,18.338
75,18,22,2,B,7.447
75,19,74,1,A,6.755
75,20,65,1,A,3.884
75,21,40,1,A,5.597
75,22,10,1,A,23.702
75,23,59,2,B,5.153
75,24,83,1,A,7.892
75,25,15,2,B,10.948
75,26,51,1,A,7.202
75,27,68,1,A,9.501
75,28,73,1,A,21.903
75,29,56,1,A,10.044
75,30,72,1,A,31.299
75,31,20,2,B,3.139
75,32,62,2,B,3.358
75,33,77,1,A,8.477
75,34,78,2,B,9.959
75,35,27,2,B,12.159
75,36,24,2,B,29.149
75,37,29,2,B,2.401
75,38,87,1,A,1.144
75,39,89,2,B,0.843
75,40,43,2,B,7.165
75,41,71,1,A,3.378
75,42,81,2,B,7.838
75,43,57,2,B,1.601
75,44,34,1,A,4.401
75,45,67,1,A,7.394
75,46,55,1,A,14.864
75,47,13,2,B,5.001
75,48,21,1,A,4.301
75,49,44,1,A,0.952
75,50,66,2,B,1.599
75,51,28,1,A,2.263
75,52,63,2,B,2.304
75,53,46,2,B,1.101
75,54,50,1,A,3.001
75,55,79,1,A,3.161
75,56,3,2,B,1.592
75,57,41,2,B,2.635
75,58,48,1,A,1.071
75,59,70,2,B,7.329
75,60,90,2,B,5.801
75,61,6,2,B,0.99
75,62,16,1,A,2.659
75,63,39,2,B,1.09
75,64,8,1,A,1.003
75,65,37,1,A,0.601
75,66,25,2,B,0.701
75,67,38,2,B,0.801
75,68,19,1,A,4.976
75,69,23,2,B,4.881
75,70,36,2,B,2.28
75,71,47,1,A,1.797
75,72,52,1,A,2.28
75,73,5,2,B,1.887
75,74,60,2,B,2.201
75,75,64,1,A,1.501
75,76,17,1,A,1.729
75,77,86,2,B,1.955
75,78,75,2,B,1.201
75,79,4,2,B,1.751
75,80,45,1,A,2.701
75,81,49,1,A,1.501
75,82,69,2,B,1.301
75,83,80,2,B,1.368
75,84,14,2,B,1.901
75,85,30,2,B,0.7
75,86,7,1,A,1.001
75,87,1,1,A,0.669
75,88,2,2,B,0.401
75,89,35,2,B,0.401
75,90,61,2,B,0.501
75,91,12,1,A,0.6
76,1,25,2,B,20.101
76,2,59,1,A,12.257
76,3,6,2,B,8.45
76,4,51,1,A,7.091
76,5,63,1,A,3.734
76,6,58,1,A,37.266
76,7,26,2,B,15.399
76,8,89,1,A,6.7
76,9,61,2,B,16.94
76,10,91,2,B,25.87
76,11,30,2,B,16.3
76,12,32,1,A,8.387
76,13,81,1,A,7.739
76,14,42,2,B,16.198
76,15,5,1,A,8.44
76,16,47,1,A,3.933
76,17,66,2,B,11.729
76,18,39,1,A,9.841
76,19,3,1,A,12.2
76,20,43,2,B,14.3
76,21,33,2,B,19.444
76,22,29,1,A,12.148
76,23,80,2,B,9.978
76,24,8,2,B,12.74
76,25,20,1,A,9.394
76,26,57,2,B,6.438
76,27,85,1,A,1.954
76,28,75,2,B,2.938
76,29,27,1,A,8.042
76,30,12,1,A,6.926
76,31,23,2,B,13.8
76,32,53,1,A,5.448
76,33,69,2,B,1.155
76,34,1,1,A,4.647
76,35,73,1,A,5.501
76,36,76,2,B,4.357
76,37,64,1,A,3.399
76,38,79,2,B,7.866
76,39,19,2,B,7.775
76,40,17,1,A,2.301
76,41,41,2,B,7.601
76,42,14,1,A,3.275
76,43,36,2,B,0.884
76,44,86,1,A,0.564
76,45,90,1,A,0.544
76,46,18,2,B,0.437
76,47,84,1,A,0.299
76,48,65,1,A,0.457
76,49,54,2,B,1.968
76,50,78,2,B,0.38
76,51,4,1,A,0.301
76,52,55,1,A,1.275
76,53,11,1,A,0.946
76,54,16,2,B,0.45
76,55,22,1,A,1.9
76,56,35,2,B,0.4
76,57,77,1,A,0.3
76,58,2,1,A,0.371
76,59,68,1,A,1.3
76,60,40,2,B,0.56
76,61,9,2,B,0.434
76,62,28,1,A,0.601
76,63,67,1,A,0.539
76,64,15,1,A,0.3
76,65,34,2,B,0.333
76,66,45,1,A,0.371
76,67,13,2,B,0.473
76,68,38,1,A,0.3
76,69,82,1,A,0.588
76,70,62,2,B,0.272
76,71,49,2,B,0.19
76,72,52,1,A,0.292
76,73,72,1,A,0.181
76,74,88,2,B,0.075
76,75,56,1,A,0.266
76,76,60,2,B,1
76,77,10,2,B,0.074
76,78,7,2,B,0
76,79,37,1,A,0.201
76,80,31,2,B,0.488
76,81,83,2,B,0.253
76,82,24,1,A,1.343
76,83,71,1,A,0.791
76,84,48,1,A,0.995
76,85,44,2,B,0.3
76,86,74,1,A,1.264
76,87,50,1,A,0.179
76,88,87,1,A,0.401
76,89,46,2,B,0.366
76,90,70,1,A,0.188
76,91,21,2,B,0.194
77,1,20,2,B,4.419
77,2,14,1,A,7.714
77,3,76,2,B,7.298
77,4,37,2,B,12.868
77,5,29,1,A,12.946
77,6,50,1,A,8.142
77,7,5,1,A,9.93
77,8,52,1,A,7.748
77,9,67,1,A,12.815
77,10,24,1,A,16.039
77,11,42,1,A,6.909
77,12,54,2,B,8.094
77,13,81,2,B,7.642
77,14,28,2,B,5.229
77,15,33,2,B,5.299
77,16,64,1,A,10.074
77,17,91,2,B,12.618
77,18,9,1,A,12.579
77,19,4,2,B,3.768
77,20,7,1,A,7.025
77,21,12,1,A,30.201
77,22,47,1,A,14.844
77,23,63,1,A,6.983
